File: ml_for_opvs/data/process/OPV_Min/Machine Learning OPV Parameters - data_from_min.csv
 ,ref number from paper,reference link,DOI,Donor Molecule,HOMO_D (eV),LUMO_D (eV),Acceptor Molecule,HOMO_A (eV),LUMO_A (eV),D:A ratio (m/m),solvent,total solids conc. (mg/mL),solvent additive,solvent additive conc. (% v/v),active layer thickness (nm),temperature of thermal annealing (leave gap if not annealed),hole contact layer,electron contact layer,hole mobility blend (cm^2 V^-1 s^-1),electron mobility blend,effective mobility,Langevin prefactor,Voc vs ln(I) slope,Voc (V),Jsc (mA cm^-2),FF (%),PCE (%)
1,5,link,10.1002/aenm.201801214,PBDT-TT,-5.23,-3.34,6TIC,-5.45,-3.94,1:1.5,,,,,,,,,,,,,,0.812,19.1,61,9.46
52,5,link,10.1002/aenm.201801214,PBDT-TT,-5.23,-3.34,ITIC,-5.6,-3.86,1:1.5,DCB,25,,,100,,PEDOT:PSS,C60-bissalt,9.28E-05,4.21E-05,,,,0.849,15.8,65,8.72
63,5,link,10.1002/aenm.201801214,PBDT-TT,-5.23,-3.34,IT-M,-5.58,-3.82,1:1.5,DCB,25,,,100,150,PEDOT:PSS,C60-bissalt,4.48E-04,2.60E-04,,,,0.904,16.5,67,9.99
2,6,link,10.1016/j.scib.2018.05.025,J71,-5.44,-3.45,A201,-5.69,-3.93,1:1,CF,,,,,,PEDOT:PSS,Ca,9.56E-04,5.17E-04,,,,0.88,13.15,67.15,9.36
3,7,link,10.1002/aenm.201801582,J52,-5.13,-3.22,BTA13,-5.34,-3.62,,,12,CN,0.5,,150,PEDOT:PSS,Ca,5.86E-04,2.80E-04,,,1.173,1.05,12.7,58.66,7.82
4,7,link,10.1002/aenm.201801582,J52-F,-5.29,-3.38,BTA13,-5.34,-3.62,,,12,CN,0.5,,150,PEDOT:PSS,Ca,3.87E-04,6.15E-05,,,1.282,1.18,11.55,61.34,8.36
5,7,link,10.1002/aenm.201801582,J52-FS,-5.32,-3.39,BTA13,-5.34,-3.62,,,12,CN,0.5,,150,PEDOT:PSS,Ca,1.40E-04,1.73E-05,,,1.419,1.24,6.74,45.96,3.84
6,8,link,10.1039/C7EE00844A,J61,-5.22,-3.21,BT-IC,-5.32,-3.85,1:1,CF,16,,,130,120,PEDOT:PSS,PDINO,6.15E-04,4.95E-04,,,,0.87,16.35,67.1,9.56
7,8,link,10.1039/C7EE00844A,J71,-5.25,-3.18,BT-IC,-5.32,-3.85,1:1.5,CF,16,,,130,120,PEDOT:PSS,PDINO,,,,,,0.9,17.75,65.7,10.46
8,9,link,10.1002/adma.201604155,J51,-5.2,-3.01,IDIC,-5.69,-3.91,1:1,CF,12,,,100,,ZnO,MoOx,3.40E-05,2.50E-04,,,,0.796,12.24,66,6.94
9,9,link,10.1002/adma.201604155,PDBT-T1,-5.36,-3.43,IDIC,-5.69,-3.91,1:1,CF,12,DIO,0.25,100,,ZnO,MoOx,6.30E-05,5.20E-04,,,,0.834,16.98,73.2,10.37
10,9,link,10.1002/adma.201604155,PDCBT,-5.32,-3.3,IDIC,-5.69,-3.91,1:1,CF,12,,,100,,ZnO,MoOx,1.70E-05,1.20E-04,,,,0.814,11.31,64.1,6.28
11,9,link,10.1002/adma.201604155,PTB7-Th,-5.2,-3.56,IDIC,-5.69,-3.91,1:1,CF,12,,,100,,ZnO,MoOx,2.10E-05,1.70E-04,,,,0.806,10.9,56.1,5.24
12,9,link,10.1002/adma.201604155,PTFBDT-BZS,-5.43,-3.58,IDIC,-5.69,-3.91,1:1,CF,12,DIO,0.25,100,,ZnO,MoOx,6.20E-05,9.20E-04,,,,0.905,17.3,70.8,11.03
13,10,link,10.1039/C7TA07049G,J61,-5.32,-3.08,IDT-IC,-5.69,-3.88,1:1,CF,1,,,120,160,PEDOT:PSS,PDINO,4.85E-04,1.60E-04,,,,0.88,13.7,57.3,6.95
81,10,link,10.1039/C7TA07049G,J61,-5.32,-3.08,SJ-IC,-5.61,-3.94,1:1,CF,,,,120,160,PEDOT:PSS,PDINO,3.10E-04,6.29E-04,,,,0.83,16.99,65.95,9.27
14,11,link,10.103/C8TA00764K,J71,-5.4,-3.24,IDTT-BH,-5.24,-3.86,1:1.4,CF,5,,,100,,PEDOT:PSS,PDINO,2.02E-04,1.63E-04,,,,0.9,17.77,69.1,11.05
15,11,link,10.103/C8TA00764K,PBDB-T,-5.33,-2.92,IDTT-BH,-5.24,-3.86,1:0.8,CF,5,,,90,100,PEDOT:PSS,PDINO,1.88E-04,8.88E-04,,,,0.85,16.86,69.2,9.92
16,11,link,10.103/C8TA00764K,PDCBT,-5.31,-3,IDTT-BH,-5.24,-3.86,1:1.2,CF,5,,,120,120,PEDOT:PSS,PDINO,1.82E-04,1.33E-04,,,,0.88,17.15,68.6,10.35
17,11,link,10.103/C8TA00764K,J71,-5.4,-3.24,IDTT-OBH,-5.41,-3.86,1:1,CF,5,,,100,,PEDOT:PSS,PDINO,1.52E-04,4.09E-05,,,,0.92,14.75,61,8.02
18,11,link,10.103/C8TA00764K,PBDB-T,-5.33,-2.92,IDTT-OBH,-5.41,-3.86,1:0.8,CF,5,,,90,110,PEDOT:PSS,PDINO,1.84E-04,9.78E-05,,,,0.87,17.46,72,10.93
19,11,link,10.103/C8TA00764K,PDCBT,-5.31,-3,IDTT-OBH,-5.41,-3.86,1:1.2,CF,5,,,100,120,PEDOT:PSS,PDINO,1.72E-04,8.18E-05,,,,0.91,13.97,64.8,8.24
20,12,link,10.1002/adma.201703080,J52,,,IEICO-4Cl,-5.56,-4.23,1:1.5,CB,10,DIO,1,110,150,PEDOT:PSS,PFN:Br,,,,,,0.7,23.8,60.7,10.10
21,12,link,10.1002/adma.201703080,PBDB-T,,,IEICO-4Cl,-5.56,-4.23,1:1,CB,10,DIO,1,100,150,PEDOT:PSS,PFN:Br,,,,,,0.744,20.8,62.5,9.67
22,12,link,10.1002/adma.201703080,PTB7-Th,,,IEICO-4Cl,-5.56,-4.23,1:1.5,CB,10,DIO,1,110,150,PEDOT:PSS,PFN:Br,,,,,,0.727,22.8,62,10.30
23,13,link,10.1021/acenergylett.8b00627,J52,,,IEICO-4F,-5.1098,-3.3772,1:1.3,CB,24,,,85,130,MoO3,ZnO,1.11E-04,1.35E-04,,,,0.704,20.48,56.9,8.20
24,13,link,10.1021/acenergylett.8b00627,J52,,,i-IEICO-4F,-5.0183,-3.3307,1:1,CB,24,,,85,130,MoO3,ZnO,2.59E-04,3.83E-04,,,,0.849,22.86,67.9,13.18
25,14,link,10.1002/adma.201706124,J71,-5.4,-3.24,ITCPTC,-5.54,-3.45,1:1,CF,,,,110,150,PEDOT:PSS,PDINO,7.13E-04,5.31E-04,,,,0.896,17.52,74.1,11.63
67,14,link,10.1002/adma.201706124,J71,-5.4,-3.24,MeIC,-5.57,-3.92,1:1,CF,,,,110,150,PEDOT:PSS,PDINO,8.38E-04,7.39E-04,,,,0.918,18.41,74.2,12.54
26,15,link,10.1007/s11426-016-0173-y,J40,-5.4,-2.9,ITIC,,,1:1,CF,8,,,,120,PEDOT:PSS,PDINO,3.70E-05,1.44E-04,,,,0.89,12.18,60.13,6.48
27,16,link,10.1002/adma.201601595,J50,-5.13,-3.16,ITIC,-5.48,-3.83,1:2,CF,,,,,150,PEDOT:PSS,PDINO,6.30E-05,2.20E-05,,0.895,,0.71,12.93,53,4.80
28,16,link,10.1002/adma.201601595,J51,-5.26,-3.08,ITIC,-5.48,-3.83,1:2,CF,,,,,150,PEDOT:PSS,PDINO,2.05E-04,8.60E-05,,0.967,,0.82,16.47,69,9.26
29,17,link,10.1021/jacs.6b01744,J52,-5.21,-2.99,ITIC,,,1:1,CF,,,,,100,PEDOT:PSS,PDINO,,,,,,0.73,13.11,57.8,5.51
30,17,link,10.1021/jacs.6b01744,J60,-5.32,-3.08,ITIC,,,1:1,CF,,,,,100,PEDOT:PSS,PDINO,,,,,,0.91,16.33,60.38,8.97
31,17,link,10.1021/jacs.6b01744,J61,-5.32,-3.08,ITIC,,,1:1,CF,,,,,100,PEDOT:PSS,PDINO,,,,,,0.89,17.43,61.48,9.53
32,18,link,10.1021/jacs.6b09110,J61,,,ITIC,-5.54,-3.84,1:1,CF,20,,,120,130,PEDOT:PSS,PDINO,2.07E-04,1.05E-04,,,,0.898,17.97,65.49,10.57
70,18,link,10.1021/jacs.6b09110,J61,,,m-ITIC,-5.52,-3.82,1:1,CF,20,,,120,130,PEDOT:PSS,PDINO,1.54E-04,1.30E-04,,,,0.912,18.31,70.55,11.77
33,19,link,10.1007/s11426-017-9030-9,J61-F,-5.45,-2.91,ITIC,-5.51,-3.83,1:1.5,CF,18,,,100,170,PEDOT:PSS,PDINO,7.40E-05,1.10E-04,,,,0.95,13.12,66.1,8.24
34,20,link,10.1021/acs.macromol.8b01036,J62,-5.31,-3.08,ITIC,-5.48,-3.83,1.5:1,CF,18,,,263,160,PEDOT:PSS,PDINO,1.23E-04,4.95E-04,,,,0.904,16.12,62.36,9.09
35,20,link,10.1021/acs.macromol.8b01036,J63,-5.28,-3.04,ITIC,-5.48,-3.83,1.5:1,CF,18,,,267.5,160,PEDOT:PSS,PDINO,8.18E-05,3.37E-04,,,,0.882,15.72,53.11,7.38
36,20,link,10.1021/acs.macromol.8b01036,J64,-5.33,-3.09,ITIC,-5.48,-3.83,1.5:1,CF,18,,,206.5,160,PEDOT:PSS,PDINO,6.54E-05,3.55E-04,,,,0.908,15.22,54.32,7.51
37,21,link,10.1002/aenm.201700746,J81,-5.43,-2.98,m-ITIC,-5.52,-3.82,1:1,CF,18,,,,160,PEDOT:PSS,PDINO,3.66E-04,4.06E-04,,,,0.95,15.27,73.08,10.60
76,21,link,10.1002/aenm.201700746,J81,-5.43,-2.98,m-ITIC,-5.52,-3.82,1:1,CF,18,,,,160,PEDOT:PSS,PDINO,4.08E-04,4.67E-04,,,,0.96,16.47,69.83,11.05
38,22,link,10.1002/aenm.201700834,PBDT(T)[2F]T,,,ITIC,-5.48,-3.83,5:5,CB,,,,65,160,MoO3,a-ZnO,3.00E-05,1.20E-05,,,,0.94,16.9,62,9.80
39,22,link,10.1002/aenm.201700834,PBDT[2F]T,,,ITIC,-5.48,-3.83,6:4,CB,,,,70,,MoO4,a-ZnO,1.50E-05,1.00E-05,,,,0.94,11.6,53,5.80
40,22,link,10.1002/aenm.201700834,PBDT[2H]T,,,ITIC,-5.48,-3.83,5:5,CB,,,,80,160,MoO5,a-ZnO,5.70E-06,2.20E-05,,,,0.79,7.6,41,2.50
119,22,link,10.1002/aenm.201700834,PBDT(2F)T,,,ITIC,-5.48,-3.83,6:4,CB,,,,,,,,,,,,,0.79,7.6,41,2.50
120,22,link,10.1002/aenm.201700834,PBDT(2H)T,,,ITIC,-5.48,-3.83,5:5,CB,,,,,,,,,,,,,0.96,10.3,53,5.40
121,22,link,10.1002/aenm.201700834,PBDT(T)(2F)T,,,ITIC,-5.48,-3.83,5:5,CB,,,,,,,,,,,,,0.94,16.9,62,9.80
41,23,link,10.1002/adfm.201706517,PBDT-2TC,-5.43,-3.57,ITIC,-5.51,-3.84,1:1,CB,16,,,,120,PEDOT:PSS,bis-C_60,,,,,,0.93,15.3,65.7,9.35
47,23,link,10.1002/adfm.201706517,PBDT-S-2TC,-5.47,-3.58,ITIC,-5.51,-3.84,1:1,CB,16,,,,120,PEDOT:PSS,bis-C_60,,,,,,0.96,16.4,64.3,10.12
42,24,link,10.1021/acs.macromol.6b02733,PBDT-DTN,-5.37,-3.53,ITIC,,,4:6,CF,,DPE,4,90,150,PEDOT:PSS,Calcium,1.44E-03,2.61E-03,,,,0.92,13.8,65,8.30
43,25,link,10.1002/adfm.201706404,PBDT-FBT,-5.14,-3.35,ITIC,-5.48,-3.83,1:1,CB,20,"1,8-diiodooctane",0.5,99,,ZnO,MoO3,5.07E-05,1.47E-05,,,,0.82,13.73,63.8,7.15
44,25,link,10.1002/adfm.201706404,PBDTF-FBT,-5.34,-3.53,ITIC,-5.48,-3.83,1:1,CB,20,"1,8-diiodooctane",0.5,107,,ZnO,MoO3,2.29E-04,1.09E-04,,,,0.9,15.38,66.3,9.17
48,25,link,10.1002/adfm.201706404,PBDTS-FBT,-5.2,-3.4,ITIC,-5.48,-3.83,1:1,CB,20,"1,8-diiodooctane",0.5,104,,ZnO,MoO3,1.08E-04,3.65E-05,,,,0.89,14.63,65.9,8.58
49,25,link,10.1002/adfm.201706404,PBDTSF-FBT,-5.41,-3.6,ITIC,-5.48,-3.83,1:1,CB,20,"1,8-diiodooctane",0.5,109,,ZnO,MoO3,4.70E-04,2.76E-04,,,,1.03,17.09,66.3,11.66
45,26,link,10.1002/adfm.201701491,PBDT–NQx,-5.24,-3.42,ITIC,-5.48,-3.83,1:0.8,CB,20,DIO,2,110,,ZnO,MoO3,1.80E-04,5.60E-05,,,,0.87,16.21,64.6,9.11
46,26,link,10.1002/adfm.201701491,PBDTS–NQx,-5.31,-3.46,ITIC,-5.48,-3.83,1:0.8,CB,20,DIO,2,109,,ZnO,MoO3,2.50E-04,1.30E-04,,,,0.92,17.86,69.8,11.47
50,27,link,10.1002/adma.201703973,PBDTS-TDZ,-5.39,-2.8,ITIC,-5.48,-3.83,1:1,o-xylene,20,,,100,,PEDOT:PSS,MoO3,1.20E-03,7.20E-04,,,,1.1,17.78,65.4,12.80
51,27,link,10.1002/adma.201703973,PBDT-TDZ,-5.35,-2.78,ITIC,-5.48,-3.83,1:1,o-xylene,20,,,,,PEDOT:PSS,MoO3,4.10E-04,2.30E-04,,,,1.02,15.91,58.1,9.43
53,28,link,10.1039/C7TA06476D,PBFZ-OP,-5.33,-3.01,ITIC,-5.6,-3.85,1:1,CF,16,,,,160,ZnO,MoO3,3.25E-04,2.62E-04,,,,0.91,18.7,61.8,10.50
54,29,link,10.1039/C7TA02075A,PSBZ,-5.37,-3.47,ITIC,-5.6,-3.85,1:1,CB,20,,,,140,ZnO,MoO3,1.70E-04,1.16E-03,,,,0.89,19,62,10.50
55,30,link,10.1039/C8TA05800H,J71,-5.4,-3.65,ITIC1,-5.48,-3.86,1:1,CF,14,,,,100,PEDOT:PSS,Zracac,3.10E-04,2.30E-04,,,,0.92,14.94,61.2,8.47
56,30,link,10.1039/C8TA05800H,J71,-5.4,-3.65,ITIC5,-5.48,-3.95,1:1,CF,14,,,,100,PEDOT:PSS,Zracac,6.30E-04,6.90E-04,,,,0.892,18.35,74.7,12.20
57,31,link,10.1002/adma.201800737,PBDT-ODZ,-5.68,-2.89,ITIC-Th,-5.78,-3.74,1:1,CB,20,,,100,,CuSCN,PFN-Br,2.20E-04,4.30E-04,,,,1.08,15.52,60.4,10.12
,31,link,10.1002/adma.201800737,PBDT-ODZ,-5.45,-3.38,ITIC-Th,-5.62,-4.01,1:1,CB,20,CuI,4,100,,CuSCN,PFN-Br,1.10E-03,8.50E-04,,,,1.06,17.1,68.1,12.34
58,32,link,10.1002/adma.201700144,FTAZ,-5.38,-3.17,ITIC-Th,-5.66,-3.93,1:1.5,CF,12,"1,8-diiodooctane",0.25,120,,ZnO,MoOx,2.40E-02,4.50E-03,,,,0.915,15.84,61.26,8.88
59,32,link,10.1002/adma.201700144,FTAZ,-5.38,-3.17,ITIC-Th1,-5.74,-4.01,1:1.5,CF,12,"1,8-diiodooctane",0.25,120,,ZnO,MoOx,2.70E-02,7.60E-03,,,,0.849,19.33,73.73,12.10
60,33,link,10.1039/C7QM00547D,FTAZ,-5.38,-3.17,ITIC-Th2,-5.75,-4.07,1:1.5,CF,12.5,"1,8-diiodooctane",0.25,100,,ZnO,MoOx,1.30E-03,5.10E-04,,,,0.751,17.19,70.07,9.06
61,33,link,10.1039/C7QM00547D,FTAZ,-5.38,-3.17,ITIC-Th3,-5.67,-3.73,1:1.5,CF,12.5,"1,8-diiodooctane",0.25,100,,ZnO,MoOx,2.40E-03,7.20E-04,,,,0.962,16.34,68.33,10.70
62,34,link,10.1002/adma.201700437,J52,-5.21,-2.99,IT-M,-5.56,-3.98,1:1,CB,12,"1,8-diiodooctane",0.5,100,150,PEDOT:PSS,PFN-Br,1.93E-04,4.07E-03,,,,0.843,17.1,65.1,9.40
,34,link,10.1002/adma.201700437,J52,-5.21,-2.99,IEICO,-5.32,-3.95,1:1,CB,12,"1,8-diiodooctane",0.5,100,150,PEDOT:PSS,PFN-Br,1.03E-04,6.38E-04,,,,0.848,15.1,51,6.50
69,34,link,10.1002/adma.201700437,J52,,,m-ITIC,,,,,,,,,,,,,,,,,0.701,17.16,49.73,5.98
64,35,link,10.1021/acs.chemmater.7b03928,J71,-5.4,-3.24,ITVffIC,-5.58,-4.04,1:1.2,CF,,CN,0.5,100,160,PEDOT:PSS,PDINO,2.06E-04,2.15E-04,,,,0.81,20.6,63.18,10.54
65,35,link,10.1021/acs.chemmater.7b03928,J71,-5.4,-3.24,ITVfIC,-5.56,-4.01,1:1.2,CF,,,,100,160,PEDOT:PSS,PDINO,3.62E-04,4.31E-04,,,,0.84,19.73,58.67,9.72
66,35,link,10.1021/acs.chemmater.7b03928,J71,-5.4,-3.24,ITVIC,-5.46,-3.97,1:1.2,CF,,,,100,160,PEDOT:PSS,PDINO,3.66E-04,2.82E-04,,,,0.89,14.47,57.64,7.34
68,36,link,10.1039/C8TA03453B,J71,-5.4,-3.24,MeIC2,-5.56,-3.97,1:1,CF,18,,,,150,PEDOT:PSS,PDIN,4.62E-04,3.70E-04,,,,0.885,16.9,69.4,10.20
71,37,link,10.1002/aenm.201702324,J70,-5.37,-2.91,m-ITIC,-5.52,-3.82,2:3,CF,,,,,150,PEDOT:PSS,PDINO,1.93E-04,8.40E-04,,,,0.92,18.09,69.82,11.62
72,37,link,10.1002/aenm.201702324,J71,-5.4,-3.24,m-ITIC,-5.52,-3.82,2:3,CF,,,,,150,PEDOT:PSS,PDINO,1.09E-04,4.66E-04,,,,0.944,18.09,70.59,12.05
73,37,link,10.1002/aenm.201702324,J72,-5.42,-3.29,m-ITIC,-5.52,-3.82,2:3,CF,,,,,150,PEDOT:PSS,PDINO,4.60E-05,3.98E-04,,,,0.962,16.35,65.03,10.23
74,37,link,10.1002/aenm.201702324,J73,-5.46,-2.92,m-ITIC,-5.52,-3.82,2:3,CF,,,,,150,PEDOT:PSS,PDINO,3.80E-05,3.10E-04,,,,0.974,16.45,66.87,10.71
75,37,link,10.1002/aenm.201702324,J74,-5.56,-3.06,m-ITIC,-5.52,-3.82,2:3,CF,,,,,150,PEDOT:PSS,PDINO,2.40E-05,4.05E-04,,,,0.99,15.89,61.18,9.63
77,38,link,10.1002/adma.201703344,J91,-5.5,-3.02,m-ITIC,,,1:1.5,CF,12,,,100,150,PEDOT:PSS,PDINO,1.02E-04,3.00E-04,,,,0.984,18.03,65.54,11.63
,38,link,10.1002/adma.201703344,J52,-5.17,-2.99,m-ITIC,,,1:1.5,CF,12,,,100,150,PEDOT:PSS,PDINO,2.09E-05,2.38E-04,,,,0.701,17.16,49.73,5.98
78,39,link,10.1039/C7TA11339K,J71,-5.4,-3.24,m-MeIC,-5.54,-3.9,,CF,,,,100,150,PEDOT:PSS,PDINO,2.06E-04,2.52E-04,,,,0.919,18.45,69.2,11.73
79,39,link,10.1039/C7TA11339K,PBDB-T,-5.33,-3.53,m-MeIC,-5.54,-3.9,,CF,,,,100,150,PEDOT:PSS,PDINO,2.18E-04,2.69E-04,,,,0.843,18.16,69.7,10.68
80,39,link,10.1039/C7TA11339K,PTB7-Th,-5.2,-3.6,m-MeIC,-5.54,-3.9,,CF,,chloronaphthalene,0.5,100,,PEDOT:PSS,PDINO,1.36E-04,1.85E-04,,,,0.796,16.52,61.7,8.12
82,40,link,10.1039/C8CC06198J,J61,-5.32,-3.38,TP21,-5.46,-3.61,1:1,CB,20,,,100,140,PEDOT:PSS,Ca,2.50E-04,7.40E-06,,,,1.05,10.92,51,5.81
83,41,link,10.1002/adma.201704713,FTAZ,-5.38,-3.17,IHIC2,-5.69,-3.86,1:1.5,CF,13.5,,,100,,ZnO,MoO3,1.80E-03,2.30E-05,,,,0.775,15.7,61.2,7.45
84,41,link,10.1002/adma.201704713,FTAZ,-5.38,-3.17,IOIC2,-5.41,-3.78,1:1.5,CF,13.5,"1,8‐diiodooctane",0.2,100,,ZnO,MoO3,4.80E-03,6.80E-04,,,,0.9,19.7,69.3,12.30
85,42,link,10.1002/adma.201604241,PBQ-0F,-5.18,-3.48,ITIC,-5.53,-3.94,1:1,THF,6,isopropanol,5,160,100,ZnO,MoO3,7.80E-04,8.20E-04,,,,0.69,16.16,59.91,6.68
86,42,link,10.1002/adma.201604241,PBQ-QF,-5.34,-3.62,ITIC,-5.53,-3.94,1:1,THF,6,isopropanol,5,160,100,ZnO,MoO3,8.60E-04,8.30E-04,,,,0.83,17.16,62.49,8.90
87,42,link,10.1002/adma.201604241,PBQ-4F,-5.49,-3.7,ITIC,-5.53,-3.94,1:1,THF,6,isopropanol,5,160,100,ZnO,MoO3,1.00E-03,1.00E-03,,,,0.95,17.87,66.8,11.34
88,43,link,10.1002/adma.201704837,PBTA-TF,-5.36,-3.42,ITCC,-5.47,-3.76,1:1,CF,8,diiodooctane,0.5,105,100,PEDOT:PSS,PFN-Br,,,,,,1,15.54,67,10.40
89,43,link,10.1002/adma.201704837,PBTA-TF,-5.36,-3.42,IT-M,-5.58,-3.85,1:1,CF,8,diiodooctane,0.5,98,100,PEDOT:PSS,PFN-Br,,,,,,0.97,17.76,71,12.20
90,43,link,10.1002/adma.201704837,PBTA-TF,-5.36,-3.42,IT-4F,-5.66,-4.14,1:1,CF,8,diiodooctane,0.5,96,100,PEDOT:PSS,PFN-Br,,,,,,0.73,20.24,72,10.60
,43,link,10.1002/adma.201704837,PBTA-TF,-5.36,-3.42,IT-M,-5.58,-3.85,1:1,THF,8,isopropanol,1,108,100,PEDOT:PSS,PFN-Br,,,,,,0.96,18.37,67,12.00
,43,link,10.1002/adma.201704837,PBTA-TF,-5.36,-3.42,IT-M,-5.58,-3.85,1:1,o-xylene,12,1-phenylnaphthalene,0.5,112,100,PEDOT:PSS,PFN-Br,,,,,,0.97,18.74,72,13.10
91,44,link,10.1002/adma.201600281,PBDB-T,-5.33,-2.92,ITIC,-5.51,-3.78,1:1,CB,20,diiodooctane,0.5,100,,ZnO,MoO3,2.10E-04,3.13E-04,,,,0.899,16.81,74.2,11.21
,44,link,10.1002/adma.201600281,PBDB-T,-5.33,-2.92,PC17BM,-5.96,-3.98,1:1,DCB,20,diiodooctane,3,100,,ZnO,MoO3,,,,,,0.853,12.8,68.2,7.45
92,45,link,10.1021/jacs.7b02677,PBDB-T-SF,-5.4,-3.6,IT-4F,-5.66,-4.14,1:1,CB,25,diiodooctane,0.5,100,,ZnO,MoO3,3.25E-04,4.32E-04,,,,0.88,20.88,71.3,13.10
,45,link,10.1021/jacs.7b02677,PBDB-T,-5.28,-3.48,ITIC,-5.5,-3.89,1:1,CB,20,diiodooctane,0.5,100,,ZnO,MoO3,2.10E-04,3.13E-04,,,,0.9,17.03,0.721,11.05
93,46,link,10.1021/acsami.5b10211,PCDTBT-C12,-5.23,-3.26,SM1,-5.93,-3.5,1:2,DCB,,,,52,90,PEDOT:PSS,LiF,3.00E-05,1.10E-05,,,,1.04,4.79,56,2.78
94,46,link,10.1021/acsami.5b10211,PCDTBT-C12,-5.23,-3.26,SM2,-5.98,-3.62,1:2,DCB,,,,60,90,PEDOT:PSS,LiF,1.10E-05,9.70E-07,,,,1.11,2.21,30,0.74
95,46,link,10.1021/acsami.5b10211,PCDTBT-C12,-5.23,-3.26,SM3,-5.95,-3.68,1:2,DCB,,,,66,90,PEDOT:PSS,LiF,2.70E-05,4.70E-07,,,,1.09,1.71,30,0.56
96,46,link,10.1021/acsami.5b10211,PCDTBT-C12,-5.23,-3.26,SM4,-5.8,-3.65,1:2,DCB,,,,57,90,PEDOT:PSS,LiF,1.00E-05,1.10E-09,,,,1.24,0.37,28,0.13
97,47,link,10.1002/adma.201606054,PTB7,-5.21,-3.36,SFBRCN,-5.93,-3.86,1:1.2,CB,22,"1,8-diiodooctanae",0.75,100,,ZnO,MoO3,5.50E-05,1.20E-04,,,,0.85,13.85,60.7,7.34
98,47,link,10.1002/adma.201606054,PTB7-Th,-5.27,-3.55,SFBRCN,-5.93,-3.86,1:1.2,CB,22,"1,8-diiodooctanae",0.75,100,,ZnO,MoO3,1.50E-04,2.20E-04,,,,0.9,17.24,64,9.90
99,48,link,10.1002/adma.201700254,PBDB-T,,,ITIC,-5.5,-3.9,1:1,CB,10,"1,8-diiodooctanae",1,110,100,PEDOT:PSS,PFN-Br,,1.28E-04,,,,0.93,17,67,10.60
100,48,link,10.1002/adma.201700254,PBDB-T,,,ITCC,-5.47,-3.76,1:1,CB,10,"1,8-diiodooctanae",1,110,100,PEDOT:PSS,PFN-Br,,6.74E-04,,,,1.01,15.9,71,11.40
101,49,link,10.1002/adma.201602642,PBDTTT-E-T,-5.09,,IEIC,-5.47,-3.9,1:1.5,CB,10,DIO,2,105,100,PEDOT:PSS,PFN-Br,,,,,,0.9,11.7,47,4.90
102,49,link,10.1002/adma.201602642,PBDTTT-E-T,-5.09,,IEICO,-5.32,-3.95,1:1,CB,10,DIO,2,95,100,PEDOT:PSS,PFN-Br,1.50E-03,4.60E-04,,,,0.82,17.7,58,8.40
419,50,link,,PBTT,,,IEICO,,,,,,,,,,,,,,,,,0.86,17.9,61.3,9.50
420,50,link,,PTB7-Th,,,IEICO,,,,,,,,,,,,,,,,,0.91,13.3,60.5,7.30
421,50,link,,PBDTTT-C-T,,,IEICO,,,,,,,,,,,,,,,,,0.89,12.3,59,6.50
422,50,link,,PBDTTT-E-T,,,IEICO,,,,,,,,,,,,,,,,,0.82,17.7,58,8.40
103,51,link,10.1002/adma.201704510,PBDB-T,-5.68,-3.84,NITI,-5.68,-3.84,1:1,CB,10,,,100,,PEDOT:PSS,PNDIT-F3N,7.90E-05,2.10E-05,,,,0.86,17.8,84,9.49
104,52,link,10.1002/adma.201701308,PTB7-Th,-5.2,-3.59,IHIC,-5.45,-3.93,1:1.5,DCB,20,CN,1,100,,ZnO,MoO3,6.80E-04,1.20E-03,,,,0.744,17.1,60.9,9.41
105,53,link,10.1039/c7cc03122j,P3HT,-5.2,-3.2,N3,-5.76,-3.97,1:1.2,o-DCB,,,,60,,PEDOT:PSS,Ca,,2.98E-03,,,,0.87,8.87,60,4.62
106,53,link,10.1039/c7cc03122j,P3HT,-5.2,-3.2,N4,-5.54,-3.67,1:1.2,o-DCB,,,,60,,PEDOT:PSS,Ca,,1.83E-04,,,,0.91,6.69,58,3.52
107,54,link,10.1039/C7CC06369E,P3HT,-5.2,-3.2,N5,-6.34,-3.73,1:1.2,o-DCB,,,,70,,PEDOT:PSS,Ca,,,,,,0.97,7.03,59,4.03
108,54,link,10.1039/C7CC06369E,P3HT,-5.2,-3.2,N6,-6.38,-3.98,1:1.2,o-DCB,,,,70,,PEDOT:PSS,Ca,,,,,,0.9,10.78,63,6.11
109,55,link,10.1020/jacs.7b13239,PTB7-Th,-5.2,-3.59,DTPC-IC,-5.21,-3.97,1:1.5,DCB,25,,,100,150,PEDOT:PSS,C60-bissalt,4.60E-04,3.70E-05,,,,0.863,8.53,42.4,3.12
110,55,link,10.1020/jacs.7b13239,PTB7-Th,-5.2,-3.59,DTPC-DFIC,-5.31,-4.1,1:1.5,DCB,25,DIO,0.5,100,150,PEDOT:PSS,C60-bissalt,5.00E-04,1.60E-04,,,,0.76,21.92,61.3,10.21
111,56,link,10.1002/adma.201604964,PBDB-T,-5.33,-2.92,DICTF,-5.67,-3.79,1:1.2,CB,10,DIO,0.3,,,PEDOT:PSS,PDIN,1.56E-05,1.49E-05,,,,0.93,10.3,59,5.93
112,56,link,10.1002/adma.201604964,PBDB-T,-5.33,-2.92,FDICTF,-5.43,-3.71,1:1.2,CB,10,DIO,0.3,,,PEDOT:PSS,PDIN,3.37E-05,2.40E-05,,,,0.94,15.81,66,10.06
113,57,link,10.1021/acsami.6b15717,P3HT,-5.08,-2.96,MPU1,-5.81,-3.99,1:1,CF,16,,,40,120,,PFN,2.58E-05,8.15E-05,,,,0.64,4.22,42,1.14
114,57,link,10.1021/acsami.6b15717,P0,-5.31,-3.33,MPU1,-5.81,-3.99,1:1,CF,16,,,40,120,,PFN,5.11E-05,8.83E-05,,,,1.04,8.36,48,4.17
115,58,link,10.1021/jacs.7b00566,PBDB-T,-5.33,-2.92,IDT-BC6,-5.55,-3.83,1:1,o-DCB,4,,,100,,ZnO,MoO3,2.89E-06,1.38E-06,,,,0.92,5.63,44,2.30
116,58,link,10.1021/jacs.7b00566,PBDB-T,-5.33,-2.92,IDT-BOC6,-5.51,-3.78,1:1,o-DCB,4,DIO,1,100,,ZnO,MoO3,1.68E-04,1.98E-04,,,,1.01,17.52,54,9.60
117,59,link,10.1002/adma.201705969,PTB7-Th,-5.2,-3.59,ITIC3,-5.54,-3.9,1:1.5,CF,10,,,,,ZnO,MoO3,6.80E-04,2.70E-04,,,,0.763,16.8,63.1,8.09
118,59,link,10.1002/adma.201705969,PTB7-Th,-5.2,-3.59,FOIC,-5.36,-3.92,1:1.5,CF,10,,,,,ZnO,MoO3,1.00E-03,5.10E-04,,,,0.743,24,67.1,12.00
122,60,link,,P3HT,,,ATT-3,,,,,,,,,,,,,,,,,0.927,10.93,62,6.26
123,61,link,,PBDB-T,,,IT-O1,,,,,,,,,,,,,,,,,0.93,17.35,72,11.60
124,61,link,,PBDB-T,,,IT-O2,,,,,,,,,,,,,,,,,0.97,15.34,62.6,9.30
125,61,link,,PBDB-T,,,IT-O3,,,,,,,,,,,,,,,,,0.98,9.8,51.4,4.90
126,61,link,,PBDB-T,,,IT-O4,,,,,,,,,,,,,,,,,0.95,9.16,47.9,4.20
127,62,link,,PTPDBDT,,,H-ITIC,,,,,,,,,,,,,,,,,1.04,10.6,58,6.40
128,62,link,,PTPDBDT,,,F-ITIC,,,,,,,,,,,,,,,,,0.94,14.1,66,8.80
129,62,link,,PTPDBDT,,,Cl-ITIC,,,,,,,,,,,,,,,,,0.94,15.6,65,9.50
130,62,link,,PTPDBDT,,,Br-ITIC,,,,,,,,,,,,,,,,,0.93,15.4,66,9.40
131,62,link,,PTPDBDT,,,I-ITIC,,,,,,,,,,,,,,,,,0.93,14.5,65,8.90
132,63,link,,PBDB-T,,,NFBDT,,,,,,,,,,,,,,,,,0.863,17.35,66.3,10.15
133,64,link,10.1002/adma.201704904,PBDB-T,,,NCBDT,,,,,,,,,,,,,,,,,0.835,19.73,70.2,11.62
272,64,link,10.1002/adma.201704904,PBDB-T,,,NFBDT,,,,,,,,,,,,,,,,,0.868,17.85,67.2,10.42
134,65,link,,J71,,,ZITI-4F,,,,,,,,,,,,,,,,,0.85,21.3,72.76,13.18
135,66,link,10.1002/adma.201800403,J71,,,ZITI,,,,,,,,,,,,,,,,,0.88,21.57,73.1,13.85
136,67,link,10.1021/acsami.7b12612,PBDB-T,,,DTCCIC-C17,,,,,,,,,,,,,,,,,0.96,14.03,67,9.02
137,68,link,,P3HT,,,O-IDTBR,,,,,,,,,,,,,,,,,0.72,13.9,60,6.30
138,68,link,,P3HT,,,EH-IDTBR,,,,,,,,,,,,,,,,,0.76,12.1,62,6.00
139,69,link,,P3HT,,,FBR,,,,,,,,,,,,,,,,,0.82,7.95,63,4.11
140,70,link,,PBDB-T,,,IDTCN,,,,,,,,,,,,,,,,,0.85,12.06,62.48,6.40
141,72,link,,PTzBI,,,ITIC,,,,,,,,,,,,,,,,,0.87,18.29,64.34,10.24
142,72,link,,P3HT,,,NAI-FN-NAI(BO),,,,,,,,,,,,,,,,,0.9,9.3,47,3.80
552,72,link,,P3HT,,,NAI-FN-NAI(DT),,,,,,,,,,,,,,,,,0.89,2.55,35,0.75
553,72,link,,P3HT,,,PI-FN-PI(DT),,,,,,,,,,,,,,,,,0.91,4.95,48,2.20
143,73,link,,P3HT,,,NAI-FN-NAI(HD),,,,,,,,,,,,,,,,,0.88,7.55,43,2.80
144,73,link,,P3HT,,,NAI-FCN-NAI(BO),,,,,,,,,,,,,,,,,0.58,3.25,39,0.80
145,74,link,,FTAZ,,,INIC,,,,,,,,,,,,,,,,,0.957,13.51,57.9,7.70
146,74,link,,FTAZ,,,INIC1,,,,,,,,,,,,,,,,,0.929,16.63,64.3,10.10
147,74,link,,FTAZ,,,INIC2,,,,,,,,,,,,,,,,,0.903,17.56,66.8,10.80
148,74,link,,FTAZ,,,INIC3,,,,,,,,,,,,,,,,,0.857,19.44,67.4,11.50
149,75,link,,PTB7-Th,,,F6IC,,,,,,,,,,,,,,,,,0.611,18.07,64,7.10
150,75,link,,PTB7-Th,,,F8IC,,,,,,,,,,,,,,,,,0.64,25.12,67.6,10.90
151,75,link,,PTB7-Th,,,F10IC,,,,,,,,,,,,,,,,,0.73,20.83,66.8,10.20
152,76,link,,PBDTTT-C-T,,,DC-IDT2T,,,,,,,,,,,,,,,,,0.9,8.33,52.3,3.93
153,77,link,,Pff4TBT-2DT,,,FBR,,,,,,,,,,,,,,,,,1.12,11.5,61,7.80
154,77,link,,Pff4TBT-2DT,,,FTTB,,,,,,,,,,,,,,,,,1.05,10.3,45,5.00
155,77,link,,Pff4TBT-2DT,,,IDFBR,,,,,,,,,,,,,,,,,1.08,4.4,38,1.75
156,77,link,,Pff4TBT-2DT,,,IDTBR,,,,,,,,,,,,,,,,,1.07,15,62,9.95
157,78,link,,J71,,,TTz1,,,,,,,,,,,,,,,,,0.9,15.43,63.18,8.77
158,78,link,,J71,,,TTz2,,,,,,,,,,,,,,,,,0.92,12.75,53.73,6.30
159,79,link,,PBDB-T,,,FTIC-C8C6,,,,,,,,,,,,,,,,,0.92,16.1,67.46,9.91
160,79,link,,PBDB-T,,,FTIC-C6C6,,,,,,,,,,,,,,,,,0.91,16.03,63.17,9.18
161,79,link,,PBDB-T,,,FTIC-C6C8,,,,,,,,,,,,,,,,,0.92,18.55,64.72,11.12
162,80,link,,PTB7-Th,,,NDI-TR,,,,,,,,,,,,,,,,,0.64,7.01,69,3.07
163,81,link,,PBDB-T,,,IXIC,,,,,,,,,,,,,,,,,0.82,20.9,65.4,11.30
164,81,link,,PBDB-T,,,IXIC-4Cl,,,,,,,,,,,,,,,,,0.69,22.9,71.2,11.20
165,82,link,,HFQx-T,,,ITTC,,,,,,,,,,,,,,,,,0.88,16.49,71,10.40
166,83,link,,PBDB-T,,,ITIC-OE,,,,,,,,,,,,,,,,,0.85,14.8,67,8.40
167,83,link,,PBDB-T,,,ITIC,,,,,,,,,,,,,,,,,0.89,16.5,71,10.40
168,84,link,,PBDB-T,,,IT-OM-1,,,,,,,,,,,,,,,,,1.01,12.31,51,6.30
169,84,link,,PBDB-T,,,IT-OM-2,,,,,,,,,,,,,,,,,0.93,17.53,73,11.00
170,84,link,,PBDB-T,,,IT-OM-3,,,,,,,,,,,,,,,,,0.97,16.38,68,10.80
171,84,link,,PBDB-T,,,IT-OM-4,,,,,,,,,,,,,,,,,0.96,14.69,56,7.90
172,85,link,,PBDB-T,,,ITCT-DM,,,,,,,,,,,,,,,,,0.904,16.32,65,10.56
173,85,link,,PBDB-T,,,ITCT,,,,,,,,,,,,,,,,,0.85,17.88,72,11.27
174,86,link,,PBDB-T,,,ITCPTC-Th,,,,,,,,,,,,,,,,,0.856,17.05,72.7,10.61
175,86,link,,PBDB-T,,,ITCPTC-Se,,,,,,,,,,,,,,,,,0.869,15.2,68.3,9.02
176,87,link,,PTB7-Th,,,IEICO-4F,,,,,,,,,,,,,,,,,0.72,25.16,61.45,11.13
177,87,link,,PBDB-T,,,ITCC,,,,,,,,,,,,,,,,,0.98,16.14,71.32,11.28
178,88,link,,PBDB-T,,,MeIC,,,,,,,,,,,,,,,,,0.896,18.07,74.3,12.03
179,89,link,,PTB7-Th,,,IFTIC,,,,,,,,,,,,,,,,,0.9,11.85,53.5,5.77
180,90,link,,PBDTTT-C-T,,,IDT-2BM,,,,,,,,,,,,,,,,,0.76,9.81,54.4,4.19
181,90,link,,PBDTTT-C-T,,,IDTT-2BM,,,,,,,,,,,,,,,,,0.845,9.67,56.8,4.70
182,91,link,,PTB7-Th,,,IDT-T,,,,,,,,,,,,,,,,,0.84,9.54,50.9,4.08
183,91,link,,PBDB-T,,,IDT-Tz,,,,,,,,,,,,,,,,,0.88,13.67,70.8,8.52
184,92,link,,PTB7-Th,,,IDT-IC,,,,,,,,,,,,,,,,,0.83,9.53,40,3.20
192,92,link,,PTB7-Th,,,IDT-IC,,,,,,,,,,,,,,,,,0.83,9.53,40,3.16
185,93,link,,PTB7-Th,,,IEIC,,,,,,,,,,,,,,,,,0.97,13.55,48,6.31
186,94,link,,PTB7-Th,,,IDT-N,,,,,,,,,,,,,,,,,0.73,13.02,57.7,5.50
187,94,link,,PTB7-Th,,,IDT-T-N,,,,,,,,,,,,,,,,,0.87,14.67,51.38,6.60
188,94,link,,PBDB-T,,,IDT-N,,,,,,,,,,,,,,,,,0.79,15.88,71.91,9.00
189,94,link,,PBDB-T,,,IDT-T-N,,,,,,,,,,,,,,,,,0.94,14.03,56.11,7.40
190,95,link,,PBDB-T,,,IDT-EDOT,,,,,,,,,,,,,,,,,0.86,21.34,62,11.32
191,95,link,,PBDB-T,,,IDT-PDOT,,,,,,,,,,,,,,,,,0.85,5.26,48.9,2.18
193,96,link,,PTB7-Th,,,IDTIDT-IC,,,,,,,,,,,,,,,,,0.94,14.49,47.5,6.48
194,97,link,,PBDB-TF,,,IDT-C6,,,,,,,,,,,,,,,,,0.96,17.5,74,12.50
195,97,link,,PBDB-TF,,,IDT-PhC6,,,,,,,,,,,,,,,,,1,13,43,5.60
196,98,link,,PTB7-Th,,,IDT-2BM,,,,,,,,,,,,,,,,,0.826,9.29,52,3.97
197,99,link,,FTAZ,,,IDCIC,,,,,,,,,,,,,,,,,0.87,21.98,71.03,13.58
198,100,link,,PBDB-T,,,FDNCTF,,,,,,,,,,,,,,,,,0.94,15.8,66,10.00
199,100,link,,PBDB-T,,,FDICTF,,,,,,,,,,,,,,,,,0.93,16.3,72.5,11.20
200,101,,,PTB7-Th,,,DTNR,,,,,,,,,,,,,,,,,1.08,15.72,56,9.51
201,102,,,PBDB-T,,,DTNIC6,,,,,,,,,,,,,,,,,0.96,7.71,45.63,3.39
202,102,,,PBDB-T,,,DTNIC8,,,,,,,,,,,,,,,,,0.96,12.92,72.84,9.03
203,103,,,PTB7-Th,,,DTCC-IC,,,,,,,,,,,,,,,,,0.95,11.23,56.2,6.00
204,104,,,P3HT,,,DNIT-TT2T,,,,,,,,,,,,,,,,,0.88,3.28,43.47,1.25
205,105,,,PTB7-Th,,,DICTF,,,,,,,,,,,,,,,,,0.85,16.33,55,7.63
206,106,,,P1o,,,PY1,,,,,,,,,,,,,,,,,0.83,10.53,56,4.89
207,106,,,P1o,,,DCI-2,,,,,,,,,,,,,,,,,0.8,13.77,63,6.94
208,107,,,PBDTTT-C-T,,,DC-IDT2F,,,,,,,,,,,,,,,,,0.96,6.32,50.8,3.08
209,108,,,PTB7-Th,,,IM-IDT,,,,,,,,,,,,,,,,,0.58,4.96,49.16,1.60
210,108,,,PTB7-Th,,,TIM-IDT,,,,,,,,,,,,,,,,,0.6,5.26,45.53,1.63
211,109,,,PTB7-Th,,,COTIC-4F,,,,,,,,,,,,,,,,,0.56,20.3,56.3,6.40
212,109,,,PTB7-Th,,,SiOTIC-4F,,,,,,,,,,,,,,,,,0.65,21.6,61.4,8.60
213,110,,,P3HT,,,BTA100,,,,,,,,,,,,,,,,,1.34,1.65,47,1.04
214,110,,,P3HT,,,BTA101,,,,,,,,,,,,,,,,,1.19,5.33,56,3.55
215,110,,,P3HT,,,BTA103,,,,,,,,,,,,,,,,,0.94,8.56,66,5.31
216,111,,,PTB7-Th,,,6TIC,,,,,,,,,,,,,,,,,0.831,20.11,66.16,11.07
217,112,,,PTB7-Th,,,COi8DFIC,,,,,,,,,,,,,,,,,0.68,26.12,68.2,12.16
218,113,,,PTB7-Th,,,IDT-2BR,,,,,,,,,,,,,,,,,0.99,14,60,7.70
219,113,,,PTB7-Th,,,IDT-2BR1,,,,,,,,,,,,,,,,,0.95,15.2,60,8.70
220,114,,,PTB7-Th,,,ATT-2,,,,,,,,,,,,,,,,,0.73,20.75,63,9.58
221,115,,,PTB7-Th,,,T1,,,,,,,,,,,,,,,,,0.72,20.95,65,9.82
222,115,,,PTB7-Th,,,T2,,,,,,,,,,,,,,,,,0.67,22.65,66,10.10
223,115,,,PTB7-Th,,,T3,,,,,,,,,,,,,,,,,0.61,22,70,9.43
224,116,,,PTB7-Th,,,ATT-1,,,,,,,,,,,,,,,,,0.87,16.48,70,10.07
225,117,,,PDBT-T1,,,IC-C6IDT-IC,,,,,,,,,,,,,,,,,0.89,15.05,65,8.71
226,118,,,PBDTT-6ttTPD,,,ITIC,,,,,,,,,,,,,,,,,0.942,15.63,67.8,9.98
227,118,,,PMOT16,,,ITIC,,,,,,,,,,,,,,,,,1.001,13,58.7,7.63
228,118,,,PBDTT-6ttTPD,,,IDIC,,,,,,,,,,,,,,,,,0.822,15.93,65.5,8.58
229,118,,,PMOT16,,,IDIC,,,,,,,,,,,,,,,,,0.925,16.13,67.3,10.04
230,119,,,PTZP,,,IDIC,,,,,,,,,,,,,,,,,0.9,17.9,73.3,11.80
231,120,,,PffBT2T-TT,,,O-IDTBR,,,,,,,,,,,,,,,,,1.08,14.32,67,10.40
232,121,,,PffBT4T-2OD,,,EH-IDTBR,,,,,,,,,,,,,,,,,1.08,14.65,60,9.50
233,122,,,PTB7-Th,,,IDT-BT-R,,,,,,,,,,,,,,,,,1.02,13.6,59.1,8.20
234,122,,,PTB7-Th,,,IDT-BT-R-CN,,,,,,,,,,,,,,,,,0.88,12.4,50.1,5.50
235,123,,,P3HT,,,I-IDTBTRh,,,,,,,,,,,,,,,,,0.86,8.81,71,5.38
236,124,,,P3HT,,,BTA1,,,,,,,,,,,,,,,,,1.02,7.34,70,5.24
237,125,,,P3HT,,,BTA2,,,,,,,,,,,,,,,,,1.22,6.15,60,4.50
238,126,,,J71,,,ITIC,,,,,,,,,,,,,,,,,0.94,17.32,69.77,11.41
239,127,,,P3HT,,,IDT-2BR,,,,,,,,,,,,,,,,,0.84,8.91,68.1,5.12
240,128,,,PBDTTT-EFT,,,IEICO-4F,,,,,,,,,,,,,,,,,0.739,22.8,59.4,10.00
241,128,,,J52,,,IEICO-4F,,,,,,,,,,,,,,,,,0.734,21.9,58.5,9.40
242,129,,,PffT2-FTAZ-2DT,,,IEIC,,,,,,,,,,,,,,,,,0.998,12.2,59,7.20
243,130,,,PTB7-Th,,,IEIC1,,,,,,,,,,,,,,,,,0.84,9.9,44,3.90
244,130,,,PTB7-Th,,,IEIC2,,,,,,,,,,,,,,,,,0.91,11.1,50,5.40
245,130,,,PTB7-Th,,,IEIC3,,,,,,,,,,,,,,,,,0.93,12.8,58,7.40
246,130,,,PTB7-Th,,,IEIC,,,,,,,,,,,,,,,,,0.95,12.3,49,6.00
247,131,,,PBDB-T,,,IT-M,,,,,,,,,,,,,,,,,0.94,17.44,73.5,12.05
248,131,,,PBDB-T,,,IT-DM,,,,,,,,,,,,,,,,,0.97,16.48,70.6,11.29
249,132,,,PBDB-ST,,,ITIC-SC6,,,,,,,,,,,,,,,,,0.9,13.87,58,7.27
250,132,,,PBDB-ST,,,ITIC-SC8,,,,,,,,,,,,,,,,,0.9,14.43,60,7.79
251,132,,,PBDB-ST,,,ITIC-SC2C6,,,,,,,,,,,,,,,,,0.92,15.32,64,9.16
252,133,,,PTB7-Th,,,ITIC-Th,,,,,,,,,,,,,,,,,0.8,15.93,68,8.70
253,133,,,PDBT-T1,,,ITIC-Th,,,,,,,,,,,,,,,,,0.88,16.24,67.1,9.60
254,134,,,P2F-EH,,,ITIC,,,,,,,,,,,,,,,,,0.983,12.4,50.48,6.13
255,134,,,P2F-Ehp,,,ITIC,,,,,,,,,,,,,,,,,1.017,13.02,54.79,7.28
256,134,,,P2F-EO,,,ITIC,,,,,,,,,,,,,,,,,1.013,12.65,52.53,6.73
257,134,,,P2F-Ehp,,,IT-F,,,,,,,,,,,,,,,,,0.959,16.91,61.94,10.06
258,134,,,P2F-Ehp,,,IT-2F,,,,,,,,,,,,,,,,,0.891,19.65,74.09,12.96
259,135,,,PB3T,,,IT-M,,,,,,,,,,,,,,,,,1,18.9,63,11.90
260,136,,,PBDB-T,,,IT-M,,,,,,,,,,,,,,,,,0.953,17.34,73.2,12.10
261,137,,,PBDB-T,,,ITIC,,,,,,,,,,,,,,,,,0.86,18.12,64.29,10.02
262,138,,,PBDB-T,,,ITIC,,,,,,,,,,,,,,,,,0.896,16.55,70.73,10.54
263,138,,,PBDB-T,,,IT-M,,,,,,,,,,,,,,,,,0.95,16.37,74.06,11.52
264,139,,,PBDB-T,,,DICTiF,,,,,,,,,,,,,,,,,0.98,11.2,65,6.97
265,140,,,PffBT4T-2OD,,,BAF-4CN,,,,,,,,,,,,,,,,,0.769,15.52,70.7,8.40
266,141,,,PBDB-T,,,DCF-2HT,,,,,,,,,,,,,,,,,1.02,11.3,49.5,5.71
267,141,,,PTB7-Th,,,DCF-2HT,,,,,,,,,,,,,,,,,0.96,12.43,40.04,4.83
268,142,,,FTAZ,,,ITIC1,,,,,,,,,,,,,,,,,0.921,16.45,56.4,8.54
269,142,,,FTAZ,,,ITIC2,,,,,,,,,,,,,,,,,0.925,18.88,63,11.00
270,143,,,PCE-10,,,BT-IC,,,,,,,,,,,,,,,,,0.81,17.5,59.6,8.30
271,143,,,PCE-10,,,BT-CIC,,,,,,,,,,,,,,,,,0.7,22.5,71,11.20
273,144,,,FTAZ,,,IDIC1,,,,,,,,,,,,,,,,,0.896,13.6,58.5,7.13
274,144,,,FTAZ,,,IHIC1,,,,,,,,,,,,,,,,,0.95,14.3,67.9,9.21
275,145,,,PBDB-T,,,NTIC,,,,,,,,,,,,,,,,,0.935,13.55,68.1,8.63
276,145,,,PBDB-T,,,NTIC-Me,,,,,,,,,,,,,,,,,0.963,13.93,66.2,8.30
277,145,,,PBDB-T,,,NTIC-OMe,,,,,,,,,,,,,,,,,0.965,13.52,66,8.61
278,145,,,PBDB-T,,,NTIC-F,,,,,,,,,,,,,,,,,0.812,15.04,66.3,8.10
279,146,,,PffBT4T-2OD,,,FBR,,,,,,,,,,,,,,,,,1.11,12.62,50,7.04
280,147,,,PBT1-C,,,IT-4F,,,,,,,,,,,,,,,,,0.79,19.7,70.5,10.90
281,147,,,PBT1-C-2Cl,,,IT-4F,,,,,,,,,,,,,,,,,0.85,19.74,76,12.70
282,148,,,J71,,,IT-IC,,,,,,,,,,,,,,,,,0.96,14.8,63.6,9.30
283,148,,,J71,,,BDT-IC,,,,,,,,,,,,,,,,,0.92,17.3,65.5,10.90
284,149,,,PBDB-T-2F,,,IT-4F,,,,,,,,,,,,,,,,,0.86,20.8,76,13.59
285,149,,,PBDB-T-2F,,,IT-4Cl,,,,,,,,,,,,,,,,,0.78,22.25,73,12.67
286,149,,,PBDB-T-2Cl,,,IT-4F,,,,,,,,,,,,,,,,,0.89,20.58,78,14.29
287,149,,,PBDB-T-2Cl,,,IT-4Cl,,,,,,,,,,,,,,,,,0.81,22.01,74,13.37
516,149,,,J71,,,BDT-IC,,,,,,,,,,,,,,,,,0.92,17.07,68.4,10.90
288,150,,,P1,,,IT-4F,,,,,,,,,,,,,,,,,0.896,20.05,64,11.50
289,150,,,P2,,,IT-4F,,,,,,,,,,,,,,,,,0.9,20.74,76,14.20
290,150,,,P3,,,IT-4F,,,,,,,,,,,,,,,,,0.904,20.31,61,11.20
291,151,,,PBDB-T-SF,,,NCBDT-4Cl,,,,,,,,,,,,,,,,,0.851,22.35,74.3,14.10
292,152,,,PM6,,,Y6,,,,,,,,,,,,,,,,,0.83,25.3,74.8,15.70
293,153,,,PBDB-T,,,ITC6-IC,,,,,,,,,,,,,,,,,0.97,16.41,73,11.61
294,154,,,J71,,,ITC6-IC,,,,,,,,,,,,,,,,,0.979,18.57,66.41,12.08
295,155,,,PBDBT-2F,,,IT-4F,,,,,,,,,,,,,,,,,0.86,20.8,74.5,13.37
296,155,,,PBDBT-2F,,,ITIC,,,,,,,,,,,,,,,,,1,16.1,66.07,10.64
558,155,,,PTQ10,,,IDIC,,,,,,,,,,,,,,,,,0.943,18.75,69.66,12.32
559,155,,,J71,,,MeIC,,,,,,,,,,,,,,,,,0.919,17.77,69.89,11.43
560,155,,,J71,,,ITCPTC,,,,,,,,,,,,,,,,,0.881,17.46,67.96,10.46
561,155,,,J71,,,ITIC,,,,,,,,,,,,,,,,,0.93,18.06,65.75,10.95
297,156,,,PBDB-T,,,ATT-6,,,,,,,,,,,,,,,,,0.96,14.66,59.37,8.22
298,156,,,PBDB-T,,,ATT-7,,,,,,,,,,,,,,,,,0.97,15.99,66.67,10.12
299,157,,,PBDB-T,,,Y1,,,,,,,,,,,,,,,,,0.87,22.44,69.1,13.42
300,157,,,PBDB-T,,,Y2,,,,,,,,,,,,,,,,,0.82,23.56,69.4,13.40
301,158,,,PBDB-T,,,BDTS-4Cl,,,,,,,,,,,,,,,,,0.83,9.8,45.9,3.73
302,158,,,PBDB-T,,,BDTC-4Cl,,,,,,,,,,,,,,,,,0.864,18.56,59.5,9.54
303,159,,,PTBB-o,,,ITCPTC,,,,,,,,,,,,,,,,,0.99,7.35,30.5,2.14
304,159,,,PTBB-m,,,ITCPTC,,,,,,,,,,,,,,,,,0.97,15.04,48.4,7.07
305,159,,,PTBB-p,,,ITCPTC,,,,,,,,,,,,,,,,,0.91,15.7,50.9,7.26
306,160,,,PBDS-TZ,,,IT-4F,,,,,,,,,,,,,,,,,0.804,20.05,73.1,12.01
307,161,,,J71,,,BTA701,,,,,,,,,,,,,,,,,1.32,0.21,25,0.07
308,161,,,J71,,,BTA3,,,,,,,,,,,,,,,,,1.2,10.39,69,8.60
309,161,,,J71,,,BTA703,,,,,,,,,,,,,,,,,0.85,3.56,40,1.21
310,162,,,PTB7-Th,,,Py-1,,,,,,,,,,,,,,,,,0.74,12.09,65,5.88
311,162,,,PTB7-Th,,,Py-2,,,,,,,,,,,,,,,,,0.75,9.67,47,3.47
312,163,,,PBB-T,,,IT-2F,,,,,,,,,,,,,,,,,0.91,20.9,70,13.30
313,164,,,PFBDB-T,,,C8-ITIC,,,,,,,,,,,,,,,,,0.93,19.59,69,12.50
314,165,,,P,,,ICz-Rd2,,,,,,,,,,,,,,,,,1.04,14.04,54,7.88
315,165,,,P,,,ICz-RdCN2,,,,,,,,,,,,,,,,,1.01,15.58,62,9.76
316,166,,,PBZ,,,IT-4F,,,,,,,,,,,,,,,,,0.6,17,63.2,6.40
317,166,,,PBZ-Cl,,,IT-4F,,,,,,,,,,,,,,,,,0.8,17.7,68.3,9.70
318,166,,,PBZ-ClSi,,,IT-4F,,,,,,,,,,,,,,,,,0.93,19.2,71.5,12.80
319,167,,,PT1,,,ITIC,,,,,,,,,,,,,,,,,0.95,5.77,39,2.13
320,167,,,PT2,,,ITIC,,,,,,,,,,,,,,,,,0.84,16.33,64,9.00
321,167,,,PT3,,,ITIC,,,,,,,,,,,,,,,,,0.88,15.52,68,9.21
322,168,,,PBDB-T,,,DF-TCIC,,,,,,,,,,,,,,,,,0.86,16.39,58,8.23
323,168,,,PBDB-T,,,HF-TCIC,,,,,,,,,,,,,,,,,0.76,20.04,65,9.86
324,169,,,BO2FC8,,,m-ITIC-OR-4Cl,,,,,,,,,,,,,,,,,0.83,20.2,63.3,11.00
325,169,,,BO2FEH,,,m-ITIC-OR-4Cl,,,,,,,,,,,,,,,,,0.88,14.4,48.5,6.40
326,170,,,PTB-EDOT,,,ITIC-Th,,,,,,,,,,,,,,,,,0.84,15.37,66.5,8.59
327,170,,,PTB-EDOTS,,,ITIC-Th,,,,,,,,,,,,,,,,,0.88,16.25,71.2,10.18
328,171,,,POPB,,,IT-4F,,,,,,,,,,,,,,,,,0.72,16.8,51.2,6.20
329,171,,,PFOPB,,,IT-4F,,,,,,,,,,,,,,,,,0.89,20.4,64.5,11.70
330,172,,,P3HT,,,BIBT-NI,,,,,,,,,,,,,,,,,0.77,6.14,44.2,2.10
331,173,,,PBDT-F-2TC,,,IT-4F,,,,,,,,,,,,,,,,,0.91,18.9,62.51,10.75
332,173,,,PBDT-SF-2TC,,,IT-4F,,,,,,,,,,,,,,,,,0.93,20.73,57.45,11.07
333,174,,,PDBT-F,,,IT-M,,,,,,,,,,,,,,,,,0.97,17.02,63.71,10.52
334,174,,,PDBT-F,,,IDIC,,,,,,,,,,,,,,,,,0.87,17.65,71.5,11.02
335,175,,,PBDS-T,,,ITIC,,,,,,,,,,,,,,,,,0.98,18.23,60,10.72
336,175,,,PBDS-T,,,ITIC-F,,,,,,,,,,,,,,,,,0.9,18.64,66.7,11.19
337,175,,,PBDS-T,,,ITIC-Th1,,,,,,,,,,,,,,,,,0.88,19.55,70,12.04
338,176,,,J71,,,ITDM,,,,,,,,,,,,,,,,,1.015,16.74,70.9,12.05
339,176,,,J71,,,ITCF,,,,,,,,,,,,,,,,,0.91,18.48,78.8,13.25
340,176,,,J71,,,IT-4F,,,,,,,,,,,,,,,,,0.803,19.58,74.2,11.66
341,177,,,PTBFeh-BDD,,,ITIC,,,,,,,,,,,,,,,,,0.893,17.76,70.16,11.13
342,177,,,PTBFSdo-BDD,,,ITIC,,,,,,,,,,,,,,,,,0.928,17.24,66.1,10.57
343,177,,,PTBFSeh-BDD,,,ITIC,,,,,,,,,,,,,,,,,0.935,17.06,64.08,10.23
344,178,,,2TC-TT-BDTFT,,,m-ITIC,,,,,,,,,,,,,,,,,1.06,15.25,59.31,9.65
345,178,,,2T-TTC-BDTFT,,,m-ITIC,,,,,,,,,,,,,,,,,0.97,16.57,69.37,11.15
346,179,,,PTB7-Th,,,ACS8,,,,,,,,,,,,,,,,,0.75,22.5,58.8,9.90
347,180,,,PB24-3TDC,,,ITIC-Th,,,,,,,,,,,,,,,,,0.902,16.8,68,10.30
348,180,,,PB68-3TDC,,,ITIC-Th,,,,,,,,,,,,,,,,,0.994,12.2,65,7.88
349,181,,,PBDB-T,,,IDNO-IDT,,,,,,,,,,,,,,,,,1.03,2.65,34.47,1.10
350,181,,,PBDB-T,,,IM1-IDT,,,,,,,,,,,,,,,,,0.55,5.07,47.41,1.62
351,181,,,PBDB-T,,,ITAN-IDT,,,,,,,,,,,,,,,,,1.18,3.71,39.19,2.00
352,182,,,PBDT-3TCO,,,IT-4F,,,,,,,,,,,,,,,,,0.88,20.96,62.7,11.52
353,182,,,PBDT-3T,,,IT-4F,,,,,,,,,,,,,,,,,0.85,3.89,30.43,1.00
354,183,,,PTB7-Th,,,NFDTS,,,,,,,,,,,,,,,,,0.67,18.77,48.9,6.15
355,183,,,PTB7-Th,,,NFDTSB,,,,,,,,,,,,,,,,,0.75,20.14,63.6,9.60
356,184,,,PBTIBDTT,,,ITIC-F,,,,,,,,,,,,,,,,,0.921,16.4,74.1,11.19
357,185,,,PBDB-T,,,DTNIF,,,,,,,,,,,,,,,,,0.9,13.26,72.77,8.73
358,185,,,PBDB-T,,,DTNSF,,,,,,,,,,,,,,,,,0.92,14.49,54.62,7.15
359,186,,,PBTIBDTT,,,Si4TIC-F,,,,,,,,,,,,,,,,,0.78,18.84,69.4,10.20
360,187,,,PDCBT-2F,,,IT-4F,,,,,,,,,,,,,,,,,0.92,17.8,69,11.60
361,188,,,PTB7-Th,,,IDT-FBTR,,,,,,,,,,,,,,,,,1.02,12.95,52.97,7.01
362,189,,,PBT-F,,,IT-4F,,,,,,,,,,,,,,,,,0.78,21.57,54.5,9.14
363,189,,,PBT-SF,,,IT-4F,,,,,,,,,,,,,,,,,0.8,21.53,60.6,10.51
364,190,,,PBT1-C,,,ITCPTC,,,,,,,,,,,,,,,,,0.94,17.2,79,12.80
365,191,,,PTZPF,,,BT-IC,,,,,,,,,,,,,,,,,0.93,12.27,49,5.63
366,191,,,PTZPF,,,BT-F,,,,,,,,,,,,,,,,,0.88,16.64,49,7.27
367,192,,,PTZPF,,,BT-2F,,,,,,,,,,,,,,,,,0.84,19.29,53,8.54
368,192,,,P3HT,,,BT3,,,,,,,,,,,,,,,,,0.72,5.81,61,2.55
369,192,,,P3HT,,,BTA3,,,,,,,,,,,,,,,,,0.9,9.64,65,5.64
370,193,,,P3HT,,,Qx1,,,,,,,,,,,,,,,,,1,6.02,67,4.03
371,193,,,P3HT,,,Qx1b,,,,,,,,,,,,,,,,,0.95,7.34,69,4.81
372,194,,,PTZI,,,ITIC,,,,,,,,,,,,,,,,,1,14.04,65.5,9.25
373,195,,,P3HT,,,BTA21,,,,,,,,,,,,,,,,,1.07,5.35,43,2.46
374,195,,,P3HT,,,BTA23,,,,,,,,,,,,,,,,,0.9,3.98,52,1.86
375,195,,,P3HT,,,BTA27,,,,,,,,,,,,,,,,,0.6,2.89,36,0.62
376,196,,,PBDTTz-BP,,,ITIC,,,,,,,,,,,,,,,,,0.81,17.7,56,8.03
377,196,,,PBDTTz-N,,,ITIC,,,,,,,,,,,,,,,,,0.75,18,49,6.61
378,197,,,PBDB-T,,,F-H,,,,,,,,,,,,,,,,,0.94,15.02,67,9.59
379,197,,,PBDB-T,,,F-F,,,,,,,,,,,,,,,,,0.88,17.36,71,10.85
380,197,,,PBDB-T,,,F-Cl,,,,,,,,,,,,,,,,,0.87,17.61,75,11.47
381,197,,,PBDB-T,,,F-Br,,,,,,,,,,,,,,,,,0.87,18.22,76,12.05
382,198,,,PBDB-T,,,DF-PCIC,,,,,,,,,,,,,,,,,0.86,18.16,72.62,11.63
383,198,,,PBDB-T,,,DF-PCNC,,,,,,,,,,,,,,,,,0.91,15.66,72.07,10.14
384,199,,,PTB7-Th,,,ITCT,,,,,,,,,,,,,,,,,0.95,15.13,72,10.42
385,199,,,PTB7-Th,,,ITIC,,,,,,,,,,,,,,,,,0.81,14.21,59,6.80
386,199,,,PTB7-Th,,,IDIC,,,,,,,,,,,,,,,,,0.81,10.9,56,5.24
387,199,,,PTB7-Th,,,IEICO-4F,,,,,,,,,,,,,,,,,0.74,22.8,59,10.00
388,199,,,PTB7-Th,,,SFBRCN,,,,,,,,,,,,,,,,,0.9,17.25,65,10.12
389,200,,,PTQ10,,,IDIC,,,,,,,,,,,,,,,,,0.969,17.81,73.6,12.70
390,201,,,PBDB-T,,,IDTIC,,,,,,,,,,,,,,,,,0.84,12.7,56.3,5.67
391,201,,,PBDB-T,,,IDTTIC,,,,,,,,,,,,,,,,,0.919,17.3,70.4,11.20
392,202,,,PTB7-Th,,,ITIC,,,,,,,,,,,,,,,,,0.822,14,66.2,7.62
393,203,,,P3HT,,,DTFBR,,,,,,,,,,,,,,,,,0.71,8.15,62,3.68
394,204,,,PBT1-C,,,TPT-2F,,,,,,,,,,,,,,,,,0.974,13.89,68.6,8.33
395,205,,,PBDB-T,,,4TIC-4F,,,,,,,,,,,,,,,,,0.652,21.5,57,7.99
396,205,,,PBDB-T,,,6TIC-4F,,,,,,,,,,,,,,,,,0.723,23,67,11.14
397,206,,,PBDB-T,,,ITBTR-C2,,,,,,,,,,,,,,,,,0.89,3.38,58.42,6.96
398,206,,,PBDB-T,,,ITBTR-C4,,,,,,,,,,,,,,,,,0.9,14.75,54.15,7.33
399,206,,,PBDB-T,,,ITBTR-C6,,,,,,,,,,,,,,,,,0.89,15.72,57.83,8.18
400,206,,,PBDB-T,,,ITBTR-C8,,,,,,,,,,,,,,,,,0.9,14.74,58.47,7.85
401,207,,,PBDB-T2Cl,,,IDIC-4H,,,,,,,,,,,,,,,,,0.98,10.32,45.3,4.57
402,207,,,PBDB-T2Cl,,,IDIC-4F,,,,,,,,,,,,,,,,,0.88,13,61.91,7.10
403,207,,,PBDB-T2Cl,,,IDIC-4Cl,,,,,,,,,,,,,,,,,0.83,16.21,68.69,9.24
404,208,,,PBDB-T,,,IT-M,,,,,,,,,,,,,,,,,0.95,17.13,72,11.74
405,208,,,PBDB-T-BO,,,IT-M,,,,,,,,,,,,,,,,,0.97,15.77,71,10.78
406,208,,,PBDB-BzT,,,IT-M,,,,,,,,,,,,,,,,,0.96,17.97,70,12.10
407,209,,,PTB7-Th,,,IDT-BT-R2,,,,,,,,,,,,,,,,,1.04,13.57,62.64,8.82
408,209,,,PTB7-Th,,,IDT-BT-RF3,,,,,,,,,,,,,,,,,1.02,13.46,61.03,8.40
409,209,,,PTB7-Th,,,IDT-BT-RO,,,,,,,,,,,,,,,,,0.89,14.47,58.88,7.59
410,209,,,PTB7-Th,,,IDT-BT-RN,,,,,,,,,,,,,,,,,1.1,11.6,52.29,6.78
411,210,,,PBDB-T,,,IDT-O-IC,,,,,,,,,,,,,,,,,0.84,11.76,63,6.23
412,210,,,PBDB-T,,,spiro-IDT-O-IC,,,,,,,,,,,,,,,,,0.83,10.32,55,4.74
413,211,,,PBDB-T,,,ICBF-O,,,,,,,,,,,,,,,,,1.06,6.82,42.6,3.11
414,211,,,PBDB-T,,,ICBF,,,,,,,,,,,,,,,,,0.99,10.3,60.1,6.07
415,211,,,PBDB-T,,,FICBF-O,,,,,,,,,,,,,,,,,0.96,10.59,54.5,5.54
416,211,,,PBDB-T,,,FICBF,,,,,,,,,,,,,,,,,0.87,12.71,67,7.41
417,212,,,PTB7-Th,,,BT-SFIC,,,,,,,,,,,,,,,,,0.77,18.46,67,9.12
418,212,,,PTB7-Th,,,BT-FIC,,,,,,,,,,,,,,,,,0.73,21.28,65,9.80
546,212,,,PTB7-Th,,,BT-SFIC,,,,,,,,,,,,,,,,,0.77,18.46,67,9.52
547,212,,,PTB7-Th,,,BT-FIC,,,,,,,,,,,,,,,,,0.73,21.28,65,10.10
423,213,,,PBZ-TS,,,ITIC,,,,,,,,,,,,,,,,,0.93,16.73,52.1,8.08
424,214,,,PBT1-EH,,,IDTCN,,,,,,,,,,,,,,,,,0.93,13.08,70.2,8.54
425,215,,,PBDB-T,,,IDT-T,,,,,,,,,,,,,,,,,0.952,11.21,59.62,6.36
426,215,,,PBDB-T,,,IDT-3MT,,,,,,,,,,,,,,,,,0.95,14.43,61.32,8.40
427,216,,,PBDB-T,,,SiIDT-IC,,,,,,,,,,,,,,,,,0.92,13.53,65.56,8.16
428,216,,,PBDB-T,,,IDIC,,,,,,,,,,,,,,,,,0.81,16.69,65.36,8.83
429,217,,,PBDB-T,,,IDTBOR,,,,,,,,,,,,,,,,,0.89,15.98,54.67,7.74
430,217,,,PBDB-T,,,IDTBSR,,,,,,,,,,,,,,,,,0.95,13.95,52.38,6.95
431,218,,,PBDB-T,,,TTIC,,,,,,,,,,,,,,,,,0.77,22.26,62,10.61
432,218,,,PBDB-T,,,TTIC-M,,,,,,,,,,,,,,,,,0.8,20.51,70,11.48
433,219,,,J52,,,ITIC,,,,,,,,,,,,,,,,,0.803,10.87,43.2,3.78
434,219,,,J52-Cl,,,ITIC,,,,,,,,,,,,,,,,,0.956,17.17,70.2,11.53
435,220,,,PBDB-T,,,IDTT2F,,,,,,,,,,,,,,,,,0.81,18.51,59,8.85
436,220,,,PBDB-T,,,IDTOT2F,,,,,,,,,,,,,,,,,0.85,20.87,72,12.79
437,221,,,PBDB-T,,,IDTIC,,,,,,,,,,,,,,,,,0.89,10.94,61.9,6.05
438,222,,,PBDB-T,,,ITIC,,,,,,,,,,,,,,,,,0.897,16.92,65.5,9.94
439,222,,,PBDB-T,,,ITCT,,,,,,,,,,,,,,,,,0.85,17.88,72.3,10.99
440,223,,,P3HT,,,IDT-RCN,,,,,,,,,,,,,,,,,0.69,7.92,63,3.42
441,223,,,P3HT,,,IDT-CA,,,,,,,,,,,,,,,,,0.84,7.77,64,4.19
442,224,,,PBDB-T,,,IDTO-T-4F,,,,,,,,,,,,,,,,,0.864,20.12,72.7,12.62
443,224,,,PBDB-T,,,IDTO-Se-4F,,,,,,,,,,,,,,,,,0.831,18.55,69.2,10.67
444,224,,,PBDB-T,,,IDTO-TT-4F,,,,,,,,,,,,,,,,,0.856,17.21,69.4,10.21
445,225,,,PBDB-T,,,IDT2Se,,,,,,,,,,,,,,,,,0.88,17.31,59.8,9.11
446,225,,,PBDB-T,,,IDT2Se-4F,,,,,,,,,,,,,,,,,0.79,21.35,65.4,11.03
548,225,,,PBDB-T,,,IDT2Se,,,,,,,,,,,,,,,,,0.89,17.49,60.8,9.36
549,225,,,PBDB-T,,,IDT2Se-4F,,,,,,,,,,,,,,,,,0.79,21.49,65.9,11.19
447,226,,,PBDT-Se-TAZ,,,ITIC,,,,,,,,,,,,,,,,,0.81,18.63,66.7,10.07
448,226,,,PBDTS-Se-TAZ,,,ITIC,,,,,,,,,,,,,,,,,0.84,19.51,75.1,12.31
449,227,,,PBDB-TF,,,IT-M,,,,,,,,,,,,,,,,,1.02,15.79,65,10.50
450,227,,,PBDB-TF,,,IT-4F,,,,,,,,,,,,,,,,,0.87,20.38,77,13.70
451,228,,,PBZ1,,,ITIC,,,,,,,,,,,,,,,,,0.74,15.7,49.8,5.80
452,228,,,PBZ-m-CF3,,,ITIC,,,,,,,,,,,,,,,,,0.94,18.4,60.2,10.40
453,229,,,PBDB-TF,,,DF-PCIC,,,,,,,,,,,,,,,,,0.92,16.01,72.42,10.97
454,229,,,PBDB-TF,,,HFO-PCIC,,,,,,,,,,,,,,,,,0.93,12.62,70.99,8.36
455,229,,,PBDB-TF,,,OF-PCIC,,,,,,,,,,,,,,,,,0.91,13.76,73.37,9.09
456,229,,,PBDB-T,,,HF-PCIC,,,,,,,,,,,,,,,,,0.91,15.66,72,10.14
457,230,,,PBDB-T,,,IF-TN,,,,,,,,,,,,,,,,,1.006,7.02,40.95,2.89
458,230,,,PBDB-T,,,IDT-TN,,,,,,,,,,,,,,,,,0.967,13.22,45.17,5.77
459,231,,,PBDB-T,,,IT-M,,,,,,,,,,,,,,,,,0.93,16.69,66.77,10.31
460,232,,,PBDB-T,,,ITIC-Cl4,,,,,,,,,,,,,,,,,0.74,21.5,60,9.60
461,233,,,PBDTS-TzBI,,,ITIC,,,,,,,,,,,,,,,,,0.94,16.8,56.2,9.04
462,233,,,PBDTS-TzBI,,,ITIC-Th,,,,,,,,,,,,,,,,,0.91,17.34,60.44,9.67
463,234,,,PBDB-T,,,NFBDT-Me,,,,,,,,,,,,,,,,,0.909,17.3,70,11.00
464,234,,,PBDB-T,,,NFBDT-F,,,,,,,,,,,,,,,,,0.793,19.28,69.5,10.62
465,234,,,PBDB-T,,,NFBDT,,,,,,,,,,,,,,,,,0.872,17.85,67.2,10.42
466,235,,,PBDB-T,,,IT-DM,,,,,,,,,,,,,,,,,0.95,15.95,68.7,10.41
467,236,,,PBDB-T,,,SN6IC,,,,,,,,,,,,,,,,,0.88,16.5,66,9.60
468,236,,,PBDB-T,,,SN6IC-4F,,,,,,,,,,,,,,,,,0.78,23.2,73,13.20
469,237,,,PTB7-Th,,,ITIC,,,,,,,,,,,,,,,,,0.825,14.4,66,7.80
470,237,,,PTB7-Th,,,IDTT-T,,,,,,,,,,,,,,,,,1.015,15.7,57,9.10
471,238,link,,PBDB-T,,,IDT-TBA,,,,,,,,,,,,,,,,,1,11.2,57,6.40
472,238,link,,PBDB-T,,,IDTT-TBA,,,,,,,,,,,,,,,,,1.03,11.6,61,7.30
473,239,,,PBDB-T,,,IDT-IC,,,,,,,,,,,,,,,,,0.83,10.54,49,4.69
474,240,link,,PBDB-T,,,O-NTIC,,,,,,,,,,,,,,,,,0.978,13.31,69.9,9.10
475,240,link,,PBDB-T,,,O-NTNC,,,,,,,,,,,,,,,,,0.942,15.98,73.4,11.00
476,241,,,PBDB-T,,,BTTFIC,,,,,,,,,,,,,,,,,0.935,17.74,54.3,9.00
477,241,,,PTB7-Th,,,BTTFIC,,,,,,,,,,,,,,,,,0.871,17.67,55,8.47
478,242,,,PM6,,,IT-4F,,,,,,,,,,,,,,,,,0.84,22.2,72.5,13.50
479,243,,,PBDB-T,,,NFTI,,,,,,,,,,,,,,,,,0.902,17.82,56,9.02
480,244,,,FTAZ,,,F5IC,,,,,,,,,,,,,,,,,0.704,14.88,53.7,5.60
481,244,,,FTAZ,,,F7IC,,,,,,,,,,,,,,,,,0.742,18.43,59.7,8.20
482,244,,,FTAZ,,,F9IC,,,,,,,,,,,,,,,,,0.873,20.2,66.4,11.70
483,245,,,PBDTTz-SBP,,,ITIC,,,,,,,,,,,,,,,,,0.914,18.52,71.43,12.09
484,245,,,PBDTTz-BP,,,ITIC,,,,,,,,,,,,,,,,,0.832,17.96,61.56,9.20
485,246,,,PJ1,,,m-ITIC,,,,,,,,,,,,,,,,,1.031,11.1,56,6.41
486,246,,,PJ1,,,IDIC,,,,,,,,,,,,,,,,,0.958,12,53.6,6.18
487,246,,,PJ2,,,m-ITIC,,,,,,,,,,,,,,,,,0.988,16.8,62.3,10.34
488,246,,,PJ2,,,IDIC,,,,,,,,,,,,,,,,,0.939,17,75.3,12.01
489,246,,,PJ3,,,m-ITIC,,,,,,,,,,,,,,,,,0.96,12.7,63.5,7.76
490,246,,,PJ3,,,IDIC,,,,,,,,,,,,,,,,,0.908,12.8,69.8,8.11
491,247,,,2D-PBTCl,,,ITIC,,,,,,,,,,,,,,,,,0.91,15.79,61.32,8.81
492,247,,,2D-PBTCl2,,,ITIC,,,,,,,,,,,,,,,,,0.87,14.52,58.43,7.38
493,247,,,PTB7-Th,,,ITIC,,,,,,,,,,,,,,,,,0.82,14.76,57.09,6.91
494,248,,,PBClT,,,ITIC,,,,,,,,,,,,,,,,,1.01,13.95,60.05,8.46
495,249,,,PBDB-T,,,BDCPDT-IC,,,,,,,,,,,,,,,,,0.86,16.56,65.52,9.33
496,249,,,PBDB-T,,,BDCPDT-FIC,,,,,,,,,,,,,,,,,0.7,19.12,60.67,8.12
497,250,,,PBFTT,,,ITIC,,,,,,,,,,,,,,,,,0.94,16,60.5,9.10
498,251,,,PBDB-O,,,ITIC,,,,,,,,,,,,,,,,,0.846,11.8,43.3,4.35
499,251,,,PBDB-T,,,ITIC,,,,,,,,,,,,,,,,,0.899,16.8,74.2,11.21
500,252,,,PBDB-T,,,BDTIT-M,,,,,,,,,,,,,,,,,0.903,17.56,71.3,11.31
501,252,,,PBDB-T,,,BDTThIT-M,,,,,,,,,,,,,,,,,0.942,18.03,71.4,12.12
508,252,,,PBZ,,,ITIC,,,,,,,,,,,,,,,,,0.79,17.2,59,8.00
509,252,,,PFBZ,,,ITIC,,,,,,,,,,,,,,,,,0.89,18.8,62,10.40
510,252,,,J51,,,ITIC,,,,,,,,,,,,,,,,,0.84,14.08,61,7.03
511,252,,,J60,,,ITIC,,,,,,,,,,,,,,,,,0.92,9.78,57.45,5.17
512,252,,,J61,,,ITIC,,,,,,,,,,,,,,,,,0.91,14.95,66.55,9.15
502,253,,,PTB7,,,IEICO-4F,,,,,,,,,,,,,,,,,0.54,14.73,28.92,2.30
503,253,,,PTB7-Th,,,IEICO-4F,,,,,,,,,,,,,,,,,0.72,23.21,69.41,11.60
504,254,,,PBO,,,ITIC,,,,,,,,,,,,,,,,,0.92,14.3,54,7.10
505,255,,,PBDB-T,,,TTIC-M,,,,,,,,,,,,,,,,,0.83,19.07,63,9.85
506,255,,,PBDB-T,,,TTIC,,,,,,,,,,,,,,,,,0.8,20.58,66,10.73
507,255,,,PBDB-T,,,TTIC-F,,,,,,,,,,,,,,,,,0.71,21.26,63,9.38
513,256,,,J71,,,ITIC,,,,,,,,,,,,,,,,,0.96,14.81,63.63,9.03
514,257,,,FTAZ,,,ITIC,,,,,,,,,,,,,,,,,0.911,16.71,58,8.77
515,257,,,HTAZ,,,ITIC,,,,,,,,,,,,,,,,,0.851,13.03,40.8,4.50
517,258,,,PTB7-Th,,,IFT-ECA,,,,,,,,,,,,,,,,,0.76,0.2,23.6,0.03
518,258,,,PTB7-Th,,,IFT-M,,,,,,,,,,,,,,,,,0.76,0.8,24.9,0.15
519,258,,,PTB7-Th,,,IFT-IC,,,,,,,,,,,,,,,,,1.03,8,50.3,4.14
520,258,,,PTB7-Th,,,IFT-TH,,,,,,,,,,,,,,,,,0.9,13.2,60.2,7.16
521,259,link,,PBDB-T,,,IT-M,,,,,,,,,,,,,,,,,0.961,16.69,70,11.50
522,260,,,PTB7-Th,,,4TIC,,,,,,,,,,,,,,,,,0.78,18.8,72,10.43
523,260,,,PTB7-Th,,,ITIC,,,,,,,,,,,,,,,,,0.83,15.18,57,7.28
524,261,,,TBF-BDD,,,ITIC,,,,,,,,,,,,,,,,,0.85,14.94,56,7.13
525,261,,,TBF-BT,,,ITIC,,,,,,,,,,,,,,,,,0.81,13.89,63,7.03
526,262,,,PBT,,,CzC6C8,,,,,,,,,,,,,,,,,0.99,8.24,41,3.30
527,262,,,PBT,,,CZC8,,,,,,,,,,,,,,,,,1.03,9,50,4.64
528,262,,,PTB7-Th,,,CZC8,,,,,,,,,,,,,,,,,0.98,11.24,45,4.91
529,262,,,PTFBDT,,,CZC8,,,,,,,,,,,,,,,,,1.16,7.99,51,4.67
530,263,,,PBDB-T,,,IDTC,,,,,,,,,,,,,,,,,0.917,16.56,61.61,9.35
531,263,,,PBDB-T,,,IDTO,,,,,,,,,,,,,,,,,0.943,16.25,65.41,10.02
532,264,,,PTB7-Th,,,BTA7,,,,,,,,,,,,,,,,,1.05,10.44,42,4.60
533,264,,,PTB7-Th,,,BTA1,,,,,,,,,,,,,,,,,0.93,0.2,29,0.06
534,264,,,PTB7-Th,,,BTA2,,,,,,,,,,,,,,,,,1.01,0.05,27,0.01
535,265,,,P3HT,,,BTA1,,,,,,,,,,,,,,,,,1.02,7.34,70,5.24
536,265,,,P3HT,,,BTA2,,,,,,,,,,,,,,,,,1.22,6.15,60,4.50
537,266,,,P3HT,,,BT2,,,,,,,,,,,,,,,,,0.97,7.59,67,4.93
538,266,,,P3HT,,,BT2b,,,,,,,,,,,,,,,,,0.92,10.02,66,6.08
539,267,,,PBDB-T,,,CDTCN,,,,,,,,,,,,,,,,,0.96,11.26,57.58,6.23
540,268,,,PTB7-Th,,,IHIC,,,,,,,,,,,,,,,,,0.754,19.01,68.1,9.77
541,269,,,PBDB-T,,,ITIC,,,,,,,,,,,,,,,,,0.88,13.8,59.8,7.40
542,270,,,PBDTTT-C-T,,,IDT-2BM,,,,,,,,,,,,,,,,,0.766,10.1,55.1,4.26
543,270,,,PBDTTT-C-T,,,IDTT-2BM,,,,,,,,,,,,,,,,,0.851,9.87,57.2,4.81
544,271,,,PffQx-T,,,ITIC,,,,,,,,,,,,,,,,,0.87,16.33,59.6,8.47
545,271,,,PffQx-PS,,,ITIC,,,,,,,,,,,,,,,,,0.97,14.96,62.9,9.12
550,272,,,P3HT,,,IDTBR,,,,,,,,,,,,,,,,,0.913,12.8,65.7,5.89
551,273,,,PBDB-T,,,ITIC,,,,,,,,,,,,,,,,,0.831,14.5,71.1,8.60
554,274,,,PBDB-T,,,ITIC,,,,,,,,,,,,,,,,,0.87,19.11,64.15,10.53
555,275,,,PTB7-Th,,,IDTBR,,,,,,,,,,,,,,,,,0.992,17.7,57.3,10.10
556,275,,,PTB7-Th,,,IEICO,,,,,,,,,,,,,,,,,0.883,14.8,61.2,7.95
557,275,,,PTB7-Th,,,IEICO-4F,,,,,,,,,,,,,,,,,0.707,26.6,66,12.40
562,276,,,J101,,,ITIC,,,,,,,,,,,,,,,,,0.951,17.7,73.65,12.47
563,276,,,J101,,,ZITI,,,,,,,,,,,,,,,,,0.937,21.25,72.48,14.43
564,276,,,J71,,,ZITI,,,,,,,,,,,,,,,,,0.912,20.23,69.49,12.82
565,277,,,PTB7-Th,,,DICTF-C10,,,,,,,,,,,,,,,,,0.865,19.255,50,6.93