File: ml_for_opvs/data/raw/OPV_Min/FINAL Machine Learning OPV Parameters - ML Training Data.csv
ref,ref number from paper,reference link,DOI,Donor Molecule,Donor PDI,Donor Mn (kDa),Donor Mw (kDa),HOMO_D (eV),LUMO_D (eV),Ehl_D (eV),Eg_D (eV),Acceptor Molecule,HOMO_A (eV),LUMO_A (eV),Ehl_A (eV),Eg_A (eV),D:A ratio (m/m),solvent,Active layer spin coating speed (rpm),total solids conc. (mg/mL),solvent additive,solvent additive conc. (% v/v),active layer thickness (nm),temperature of thermal annealing,annealing time (min),hole contact layer,HTL energy level (eV),HTL thickness (nm),electron contact layer,ETL enegy level (eV),ETL thickness (nm),hole mobility blend (cm^2 V^-1 s^-1),electron mobility blend (cm^2 V^-1 s^-1),effective mobility,Langevin prefactor,Voc vs ln(I) slope,Voc (V),Jsc (mA cm^-2),FF (%),PCE (%),calc_PCE
1,5,link,10.1002/aenm.201801214,PBDT-TT,1.71,136.7,,-5.23,-3.34,-1.89,1.88,6TIC,-5.45,-3.94,-1.51,1.37,1:1.5,DCB,2500,25,_,0,100,25,0,PEDOT:PSS,,,C60-bissalt,,,6.06E-05,3.04E-05,,,,0.812,19.1,61,9.46,946.0612
52,5,link,10.1002/aenm.201801214,PBDT-TT,1.71,136.7,,-5.23,-3.34,-1.89,1.88,ITIC,-5.6,-3.86,-1.74,1.59,1:1.5,DCB,2500,25,_,0,100,25,0,PEDOT:PSS,,,C60-bissalt,,,9.28E-05,4.21E-05,,,,0.849,15.8,65,8.72,871.923
63,5,link,10.1002/aenm.201801214,PBDT-TT,1.71,136.7,,-5.23,-3.34,-1.89,1.88,IT-M,-5.58,-3.82,-1.76,1.61,1:1.5,DCB,2500,25,_,0,100,25,0,PEDOT:PSS,,,C60-bissalt,,,1.43E-04,5.50E-05,,,,0.904,16.5,67,9.99,999.372
2,6,link,10.1016/j.scib.2018.05.025,J71,,,,-5.44,-3.45,-1.99,1.6,A201,-5.69,-3.93,-1.76,1.64,1:1,CF,,,_,0,,25,0,PEDOT:PSS,,,Ca,,20,9.56E-04,5.17E-04,,,,0.88,13.15,67.15,9.36,777.0598
3,7,link,10.1002/aenm.201801582,J52,,,,-5.13,-3.22,-1.91,1.91,BTA13,-5.34,-3.62,-1.72,1.72,1:1,CF,,12,CN,0.5,105,170,,PEDOT:PSS,,30,Ca,,20,5.86E-04,2.80E-04,,,1.173,1.05,12.7,58.66,7.82,782.2311
4,7,link,10.1002/aenm.201801582,J52-F,1.87,24.6,45.8,-5.29,-3.38,-1.91,1.92,BTA13,-5.34,-3.62,-1.72,1.72,1:1,CF,1000,12,CN,0.5,108,150,,PEDOT:PSS,,30,Ca,,20,3.87E-04,6.15E-05,,,1.282,1.18,11.55,61.34,8.36,836.003
5,7,link,10.1002/aenm.201801582,J52-FS,2.64,19.6,51.8,-5.32,-3.39,-1.93,1.93,BTA13,-5.34,-3.62,-1.72,1.72,1:1,CF,,12,CN,0.5,96,150,,PEDOT:PSS,,30,Ca,,20,1.40E-04,1.73E-05,,,1.419,1.24,6.74,45.96,3.84,384.115
6,8,link,10.1039/C7EE00844A,J61,,,,-5.22,-3.21,-2.01,1.66,BT-IC,-5.32,-3.85,-1.47,1.43,1:1,CF,1500,16,_,0,130,120,10,PEDOT:PSS,,,PDINO,,10,6.15E-04,4.95E-04,,,,0.87,16.35,67.1,9.56,954.464
7,8,link,10.1039/C7EE00844A,J71,,,,-5.25,-3.18,-2.07,1.78,BT-IC,-5.32,-3.85,-1.47,1.43,1:1.5,CF,1500,16,_,0,130,120,10,PEDOT:PSS,,,PDINO,,10,3.53E-04,7.60E-04,,,,0.9,17.75,65.7,10.46,1049.56
8,9,link,10.1002/adma.201604155,J51,1.35,32,,-5.2,-3.01,-2.19,1.91,IDIC,-5.69,-3.91,-1.78,1.62,1:1,CF,3000,12,_,0,100,25,0,MoOx,,5,ZnO,,,3.40E-05,2.50E-04,,,,0.796,12.24,66,6.94,643.041
9,9,link,10.1002/adma.201604155,PDBT-T1,1.75,,342,-5.36,-3.43,-1.93,1.85,IDIC,-5.69,-3.91,-1.78,1.62,1:1,CF,3000,12,DIO,0.25,100,25,0,MoOx,,5,ZnO,,,6.30E-05,5.20E-04,,,,0.834,16.98,73.2,10.37,1036.61
10,9,link,10.1002/adma.201604155,PDCBT,1.62,24.8,40.2,-5.32,-3.3,-2.02,1.9,IDIC,-5.69,-3.91,-1.78,1.62,1:1,CF,3000,12,_,0,100,25,0,MoOx,,5,ZnO,,,1.70E-05,1.20E-04,,,,0.814,11.31,64.1,6.28,590.126
11,9,link,10.1002/adma.201604155,PTB7-Th,,,,-5.2,-3.56,-1.64,1.58,IDIC,-5.69,-3.91,-1.78,1.62,1:1,CF,3000,12,_,0,100,25,0,MoOx,,5,ZnO,,,2.10E-05,1.70E-04,,,,0.806,10.9,56.1,5.24,492.861
12,9,link,10.1002/adma.201604155,PTFBDT-BZS,3.35,66.8,223.6,-5.43,-3.58,-1.85,1.81,IDIC,-5.69,-3.91,-1.78,1.62,1:1,CF,3000,12,DIO,0.25,100,25,0,MoOx,,5,ZnO,,,6.20E-05,9.20E-04,,,,0.905,17.3,70.8,11.03,1108.48
13,10,link,10.1039/C7TA07049G,J61,,,,-5.32,-3.08,-2.24,1.93,IDT-IC,-5.69,-3.88,-1.81,1.72,1:1,CF,2800,,_,0,120,160,2,PEDOT:PSS,,40,PDINO,,10,4.85E-04,1.60E-04,,,,0.88,13.7,57.3,6.95,690.8088
81,10,link,10.1039/C7TA07049G,J61,,,,-5.32,-3.08,-2.24,1.93,SJ-IC,-5.61,-3.94,-1.67,1.49,1:1,CF,2800,,_,0,120,160,2,PEDOT:PSS,,40,PDINO,,10,3.10E-04,6.29E-04,,,,0.83,16.99,65.95,9.27,930.007
14,11,link,10.103/C8TA00764K,J71,,,,-5.4,-3.24,-2.16,1.54,IDTT-BH,-5.24,-3.86,-1.38,1.54,1:1.4,CF,,12,_,0,100,25,0,PEDOT:PSS,,,PDINO,,,2.02E-04,1.63E-04,,,,0.9,17.77,69.1,11.05,1105.12
15,11,link,10.103/C8TA00764K,PBDB-T,,,,-5.33,-2.92,-2.41,1.64,IDTT-BH,-5.24,-3.86,-1.38,1.54,1:0.8,CF,,9,_,0,90,100,,PEDOT:PSS,,,PDINO,,,1.88E-04,8.88E-04,,,,0.85,16.86,69.2,9.92,991.7052
16,11,link,10.103/C8TA00764K,PDCBT,,,,-5.31,-3.0,-2.3,1.5,IDTT-BH,-5.24,-3.86,-1.38,1.54,1:1.2,CF,,11,_,0,120,120,,PEDOT:PSS,,,PDINO,,,1.82E-04,1.33E-04,,,,0.88,17.15,68.6,10.35,1035.31
17,11,link,10.103/C8TA00764K,J71,,,,-5.4,-3.24,-2.16,1.54,IDTT-OBH,-5.41,-3.86,-1.55,1.57,1:1,CF,,10,_,0,100,25,0,PEDOT:PSS,,,PDINO,,,1.52E-04,4.09E-05,,,,0.92,14.75,61,8.02,827.77
18,11,link,10.103/C8TA00764K,PBDB-T,,,,-5.33,-2.92,-2.41,,IDTT-OBH,-5.41,-3.86,-1.55,1.57,1:0.8,CF,,9,_,0,90,110,,PEDOT:PSS,,,PDINO,,,1.84E-04,9.78E-05,,,,0.87,17.46,72,10.93,1093.69
19,11,link,10.103/C8TA00764K,PDCBT,,,,-5.31,-3.0,-2.3,,IDTT-OBH,-5.41,-3.86,-1.55,1.57,1:1.2,CF,,11,_,0,100,120,,PEDOT:PSS,,,PDINO,,,1.72E-04,8.18E-05,,,,0.91,13.97,64.8,8.24,823.783
20,12,link,10.1002/adma.201703080,J52,,,,-5.3,,-5.3,,IEICO-4Cl,-5.56,-4.23,-1.33,1.23,1:1.5,CB,,10,DIO,1,110,100,10,PEDOT:PSS,,,PFN-Br,,2,,,,,,0.7,23.8,60.7,10.10,1011.262
21,12,link,10.1002/adma.201703080,PBDB-T,,,,-5.3,,-5.3,,IEICO-4Cl,-5.56,-4.23,-1.33,1.23,1:1,CB,,10,DIO,1,100,100,10,PEDOT:PSS,,,PFN-Br,,2,,,,,,0.744,20.8,62.5,9.67,967.2
22,12,link,10.1002/adma.201703080,PTB7-Th,,,,-5.3,,-5.3,,IEICO-4Cl,-5.56,-4.23,-1.33,1.23,1:1.5,CB,,10,DIO,1,110,100,10,PEDOT:PSS,,,PFN-Br,,2,,,,,,0.727,22.8,62,10.30,1027.69
23,13,link,10.1021/acenergylett.8b00627,J52,1.86,57.5,,-5.21,-2.99,-2.22,1.96,IEICO-4F,-5.1098,-3.3772,-1.7326,1.29,1:1.3,CB,,24,_,0,85,130,10,MoOx,,10,ZnO,,40,1.11E-04,1.35E-04,,,,0.704,20.48,56.9,8.20,820.38
24,13,link,10.1021/acenergylett.8b00627,J52,1.86,57.5,,,,0,1.96,i-IEICO-4F,-5.0183,-3.3307,-1.6876,1.56,1:1,CB,,24,_,0,85,130,10,MoOx,,10,ZnO,,40,2.59E-04,3.83E-04,,,,0.849,22.86,67.9,13.18,1317.81
25,14,link,10.1002/adma.201706124,J71,2,23.5,,-5.4,-3.24,-2.16,,ITCPTC,-5.54,-3.45,-2.09,1.58,1:1,CF,3000,,_,0,110,150,2,PEDOT:PSS,,40,PDINO,,10,7.13E-04,5.31E-04,,,,0.896,17.52,74.1,11.63,1163.22
67,14,link,10.1002/adma.201706124,J71,2,23.5,,-5.4,-3.24,-2.16,,MeIC,-5.57,-3.92,-1.65,1.58,1:1,CF,3000,,_,0,110,150,2,PEDOT:PSS,,40,PDINO,,10,8.38E-04,7.39E-04,,,,0.918,18.41,74.2,12.54,1254.01
26,15,link,10.1007/s11426-016-0173-y,J40,2.6,58.9,,-5.4,-2.9,-2.5,1.95,ITIC,,,0,,1:1,CF,2500,16,_,0,,120,10,PEDOT:PSS,,40,PDINO,,10,3.70E-05,1.44E-04,,,,0.89,12.18,60.13,6.48,651.821
27,16,link,10.1002/adma.201601595,J50,,,,-5.13,-3.16,-1.97,1.88,ITIC,-5.48,-3.83,-1.65,1.59,1:2,CF,1800,18,_,0,,150,10,PEDOT:PSS,,40,PDINO,,10,6.30E-05,2.20E-05,,0.895,,0.71,12.93,53,4.80,486.5559
28,16,link,10.1002/adma.201601595,J51,,,,-5.26,-3.08,-2.18,1.91,ITIC,-5.48,-3.83,-1.65,1.59,1:2,CF,1800,18,_,0,,150,10,PEDOT:PSS,,40,PDINO,,10,2.05E-04,8.60E-05,,0.967,,0.82,16.47,69,9.26,931.8726
29,17,link,10.1021/jacs.6b01744,J52,1.86,57.5,,-5.21,-2.99,-2.22,1.96,ITIC,-5.48,-3.83,-1.65,1.57,1:1,CF,2500,20,_,0,,100,10,PEDOT:PSS,,40,PDINO,,10,,,,,,0.73,13.11,57.8,5.51,553.163
30,17,link,10.1021/jacs.6b01744,J60,2.22,23.9,,-5.32,-3.08,-2.24,1.93,ITIC,-5.48,-3.83,-1.65,1.57,1:1,CF,2500,20,_,0,,100,10,PEDOT:PSS,,40,PDINO,,10,,,,,,0.91,16.33,60.38,8.97,897.265
31,17,link,10.1021/jacs.6b01744,J61,2.29,34.2,,-5.32,-3.08,-2.24,1.93,ITIC,-5.48,-3.83,-1.65,1.57,1:1,CF,2500,20,_,0,,100,10,PEDOT:PSS,,40,PDINO,,10,4.96E-04,2.16E-04,,,,0.89,17.43,61.48,9.53,953.721
32,18,link,10.1021/jacs.6b09110,J61,1.86,32.4,,,,0,1.93,ITIC,-5.54,-3.84,-1.7,1.59,1:1,CF,3000,20,_,0,120,130,5,PEDOT:PSS,,40,PDINO,,10,2.07E-04,1.05E-04,,,,0.898,17.97,65.49,10.57,1056.82
70,18,link,10.1021/jacs.6b09110,J61,1.86,32.4,,,,0,1.93,m-ITIC,-5.52,-3.82,-1.7,1.58,1:1,CF,3000,20,_,0,120,130,5,PEDOT:PSS,,40,PDINO,,10,1.54E-04,1.30E-04,,,,0.912,18.31,70.55,11.77,1178.09
33,19,link,10.1007/s11426-017-9030-9,J61-F,1.47,14.2,,-5.45,-2.91,-2.54,2.03,ITIC,-5.51,-3.83,-1.68,,1:1.5,CF,3000,18,_,0,100,170,1,PEDOT:PSS,,40,PDINO,,,7.40E-05,1.10E-04,,,,0.95,13.12,66.1,8.24,823.8704
34,20,link,10.1021/acs.macromol.8b01036,J62,1.69,8.5,,-5.31,-3.08,-2.23,1.92,ITIC,-5.48,-3.83,-1.65,,1.5:1,CF,3000,18,_,0,263,25,0,PEDOT:PSS,,,PDINO,,10,1.23E-04,4.95E-04,,,,0.904,16.12,62.36,9.09,908.74
35,20,link,10.1021/acs.macromol.8b01036,J63,2.33,9.9,,-5.28,-3.04,-2.24,1.92,ITIC,-5.48,-3.83,-1.65,,1.5:1,CF,3000,18,_,0,166.5,25,0,PEDOT:PSS,,,PDINO,,10,8.18E-05,3.37E-04,,,,0.882,15.72,53.11,7.38,736.372
36,20,link,10.1021/acs.macromol.8b01036,J64,2.34,11.1,,-5.33,-3.09,-2.24,1.92,ITIC,-5.48,-3.83,-1.65,,1.5:1,CF,3000,18,_,0,321,25,0,PEDOT:PSS,,,PDINO,,10,6.54E-05,3.55E-04,,,,0.908,15.22,54.32,7.51,750.689
37,21,link,10.1002/aenm.201700746,J81,1.69,10.1,,-5.43,-2.98,-2.45,1.93,ITIC,,,0,,1:1,CF,2700,18,_,0,,160,2,PEDOT:PSS,,40,PDINO,,,3.66E-04,4.06E-04,,,,0.95,15.27,73.08,10.60,1060.14
76,21,link,10.1002/aenm.201700746,J81,1.69,10.1,,-5.43,-2.98,-2.45,1.93,m-ITIC,-5.52,-3.82,-1.7,1.59,1:1,CF,2700,18,_,0,,160,2,PEDOT:PSS,,40,PDINO,,,4.08E-04,4.67E-04,,,,0.96,16.47,69.83,11.05,1104.1
38,22,link,10.1002/aenm.201700834,PBDT(T)[2F]T,1.5,32,49,-5.22,-3.22,-2,2,ITIC,-5.48,-3.83,-1.65,1.6,1:1,CB,1500,10,_,0,65,160,10,MoOx,,7,ZnO,,25,3.00E-05,1.20E-05,,,,0.94,16.9,62,9.80,984.932
39,22,link,10.1002/aenm.201700834,PBDT[2F]T,2.1,13,28,-5.29,-3.19,-2.1,2.1,ITIC,-5.48,-3.83,-1.65,1.6,1.5:1,CB,1500,10,_,0,70,25,0,MoOx,,7,ZnO,,25,1.50E-05,1.00E-05,,,,0.94,11.6,53,5.80,577.912
40,22,link,10.1002/aenm.201700834,PBDT[2H]T,1.7,28,48,-5.03,-2.93,-2.1,2.1,ITIC,-5.48,-3.83,-1.65,1.6,1:1,CB,1500,10,_,0,80,160,10,MoOx,,7,ZnO,,25,5.70E-06,2.20E-05,,,,0.79,7.6,41,2.50,246.164
41,23,link,10.1002/adfm.201706517,PBDT-2TC,2.3,145,280,-5.43,-3.57,-1.86,1.96,ITIC,-5.51,-3.84,-1.67,1.6,1:1,CB,1200,16,_,0,110,120,10,PEDOT:PSS,,35,C60-bissalt,,2-5,2.07E-04,2.92E-04,,,,0.93,15.3,65.7,9.35,934.8453
47,23,link,10.1002/adfm.201706517,PBDT-S-2TC,1.9,104,199,-5.47,-3.58,-1.89,1.94,ITIC,-5.51,-3.84,-1.67,1.6,1:1,CB,1200,16,_,0,110,120,10,PEDOT:PSS,,35,C60-bissalt,,2-5,2.11E-04,2.83E-04,,,,0.96,16.4,64.3,10.12,1012.34
42,24,link,10.1021/acs.macromol.6b02733,PBDT-DTN,2.01,13.2,,-5.37,-3.53,-1.84,1.84,ITIC,,,0,,4:6,CF,,,DPE,4,90,25,0,PEDOT:PSS,,,Ca,,20,1.44E-03,2.61E-03,,,,0.92,13.8,65,8.30,825.24
43,25,link,10.1002/adfm.201706404,PBDT-FBT,1.73,28.5,49.3,-5.14,-3.35,-1.79,1.69,ITIC,-5.48,-3.83,-1.65,1.59,1:1,CB,2000,20,DIO,0.5,99,25,0,MoOx,,10,ZnO,,30,5.07E-05,1.47E-05,,,,0.82,13.73,63.8,7.15,718.299
44,25,link,10.1002/adfm.201706404,PBDTF-FBT,1.76,27.2,48,-5.34,-3.53,-1.81,1.71,ITIC,-5.48,-3.83,-1.65,1.59,1:1,CB,2000,20,DIO,0.5,107,25,0,MoOx,,10,ZnO,,30,2.29E-04,1.09E-04,,,,0.9,15.38,66.3,9.17,917.7246
48,25,link,10.1002/adfm.201706404,PBDTS-FBT,1.75,28.1,49.2,-5.2,-3.4,-1.8,1.7,ITIC,-5.48,-3.83,-1.65,1.59,1:1,CB,2000,20,DIO,0.5,104,25,0,MoOx,,10,ZnO,,30,1.08E-04,3.65E-05,,,,0.89,14.63,65.9,8.58,858.064
49,25,link,10.1002/adfm.201706404,PBDTSF-FBT,1.76,28.1,49.5,-5.41,-3.6,-1.81,1.71,ITIC,-5.48,-3.83,-1.65,1.59,1:1,CB,2000,20,DIO,0.5,109,25,0,MoOx,,10,ZnO,,30,4.70E-04,2.76E-04,,,,1.03,17.09,66.3,11.66,1167.06
45,26,link,10.1002/adfm.201701491,PBDT-NQx,1.4,38,53.2,-5.24,-3.42,-1.82,1.8,ITIC,-5.48,-3.83,-1.65,1.59,1:0.8,CB,2000,20,DIO,2,110,25,0,MoOx,,10,ZnO,,30,1.80E-04,5.60E-05,,,,0.87,16.21,64.6,9.11,911.034
46,26,link,10.1002/adfm.201701491,PBDTS-NQx,1.7,40,68,-5.31,-3.46,-1.85,1.81,ITIC,-5.48,-3.83,-1.65,1.59,1:0.8,CB,2000,20,DIO,2,109,25,0,MoOx,,10,ZnO,,30,2.50E-04,1.30E-04,,,,0.92,17.86,69.8,11.47,1146.9
50,27,link,10.1002/adma.201703973,PBDTS-TDZ,1.9,35.9,67.6,-5.39,-2.8,-2.59,2.6,ITIC,-5.48,-3.83,-1.65,1.59,1:1,o-xylene,,20,_,0,100,25,0,PEDOT:PSS,,10,MoOx,,30,1.20E-03,7.20E-04,,,,1.1,17.78,65.4,12.80,1279.09
51,27,link,10.1002/adma.201703973,PBDT-TDZ,2.1,31.6,66.3,-5.35,-2.78,-2.57,2.57,ITIC,-5.48,-3.83,-1.65,1.59,1:1,o-xylene,,20,_,0,100,25,0,PEDOT:PSS,,10,MoOx,,30,4.10E-04,2.30E-04,,,,1.02,15.91,58.1,9.43,942.858
53,28,link,10.1039/C7TA06476D,PBFZ-OP,1.95,24.1,,-5.33,-3.01,-2.32,1.99,ITIC,-5.6,-3.85,-1.75,1.59,1:1,CF,,16,_,0,,160,10,ZnO,,,MoOx,,10,3.25E-04,2.62E-04,,,,0.91,18.7,61.8,10.50,1051.65
54,29,link,10.1039/C7TA02075A,PSBZ,2.28,30.5,,-5.37,-3.47,-1.9,1.93,ITIC,-5.6,-3.85,-1.75,1.59,1:1,CB,,20,_,0,,140,10,ZnO,,,MoOx,,10,1.70E-04,1.16E-03,,,,0.89,19,62,10.50,1048.42
55,30,link,10.1039/C8TA05800H,J71,2,23.5,,-5.4,-3.65,-1.75,1.96,ITIC1,-5.48,-3.86,-1.62,1.55,1:1,CF,,14,_,0,100,100,5,PEDOT:PSS,,,ZrAcAc,,,3.10E-04,2.30E-04,,,,0.92,14.94,61.2,8.47,841.182
56,30,link,10.1039/C8TA05800H,J71,2,23.5,,-5.4,-3.65,-1.75,1.96,ITIC5,-5.48,-3.95,-1.53,1.53,1:1,CF,,14,_,0,100,100,5,PEDOT:PSS,,,ZrAcAc,,,6.30E-04,6.90E-04,,,,0.892,18.35,74.7,12.20,1222.7
57,31,link,10.1002/adma.201800737,PBDT-ODZ,2,41.8,,-5.68,-2.89,-2.79,2.12,ITIC-Th,-5.78,-3.74,-2.04,1.6,1:1,CB,2000,20,_,0,100,25,0,CuSCN,,,PFN-Br,,5,2.20E-04,4.30E-04,,,,1.08,15.52,60.4,10.12,1012.4
58,32,link,10.1002/adma.201700144,FTAZ,2.36,42.2,,-5.38,-3.17,-2.21,2,ITIC-Th,-5.66,-3.93,-1.73,1.6,1:1.5,CF,3000,12,DIO,0.25,120,25,0,MoOx,,5,ZnO,,,2.40E-02,4.50E-03,,,,0.915,15.84,61.26,8.88,887.878
59,32,link,10.1002/adma.201700144,FTAZ,2.36,42.2,,-5.38,-3.17,-2.21,2,ITIC-Th1,-5.74,-4.01,-1.73,1.55,1:1.5,CF,3000,12,DIO,0.25,120,25,0,MoOx,,5,ZnO,,,2.70E-02,7.60E-03,,,,0.849,19.33,73.73,12.10,1210
60,33,link,10.1039/C7QM00547D,FTAZ,2.36,42.2,,-5.38,-3.17,-2.21,2,ITIC-Th2,-5.75,-4.07,-1.68,1.54,1:1.5,CF,3000,12.5,DIO,0.25,100,25,0,MoOx,,5,ZnO,,30,1.30E-03,5.10E-04,,,,0.751,17.19,70.07,9.06,904.582
61,33,link,10.1039/C7QM00547D,FTAZ,2.36,42.2,,-5.38,-3.17,-2.21,2,ITIC-Th3,-5.67,-3.73,-1.94,1.63,1:1.5,CF,3000,12.5,DIO,0.25,100,25,0,MoOx,,5,ZnO,,30,2.40E-03,7.20E-04,,,,0.962,16.34,68.33,10.70,1074.08
62,34,link,10.1002/adma.201700437,J52,1.86,57.5,,-5.21,-2.99,-2.22,1.96,IT-M,-5.56,-3.98,-1.58,1.63,1:1,CB,,12,DIO,0.5,100,150,10,PEDOT:PSS,,40,PFN-Br,,5,1.93E-04,4.07E-03,,,,0.843,17.1,65.1,9.40,938.436
569,34,link,10.1002/adma.201700437,J52,1.86,57.5,,-5.21,-2.99,-2.22,1.96,IEICO,-5.32,-3.95,-1.37,1.34,1:1,CB,,12,DIO,0.5,100,150,10,PEDOT:PSS,,40,PFN-Br,,5,1.03E-04,6.38E-04,,,,0.848,15.1,51,6.50,653.0448
64,35,link,10.1021/acs.chemmater.7b03928,J71,2,23.5,,-5.4,-3.24,-2.16,1.96,ITVffIC,-5.58,-4.04,-1.54,1.4,1:1.2,CF,3000,,CN,0.5,100,160,2,PEDOT:PSS,,40,PDINO,,10,2.06E-04,2.15E-04,,,,0.81,20.6,63.18,10.54,1054.22
65,35,link,10.1021/acs.chemmater.7b03928,J71,2,23.5,,-5.4,-3.24,-2.16,1.96,ITVfIC,-5.56,-4.01,-1.55,1.37,1:1.2,CF,3000,,_,0,100,160,2,PEDOT:PSS,,40,PDINO,,10,3.62E-04,4.31E-04,,,,0.84,19.73,58.67,9.72,972.35
66,35,link,10.1021/acs.chemmater.7b03928,J71,2,23.5,,-5.4,-3.24,-2.16,1.96,ITVIC,-5.46,-3.97,-1.49,1.35,1:1.2,CF,3000,,_,0,100,160,2,PEDOT:PSS,,40,PDINO,,10,3.66E-04,2.82E-04,,,,0.89,14.47,57.64,7.34,742.305
68,36,link,10.1039/C8TA03453B,J71,2,23.5,,-5.4,-3.24,-2.16,1.96,MeIC2,-5.56,-3.97,-1.59,1.51,1:1,CF,2000,18,_,0,100,150,5,PEDOT:PSS,,,PDIN,,,4.62E-04,3.70E-04,,,,0.885,16.9,69.4,10.20,1037.98
71,37,link,10.1002/aenm.201702324,J70,2.1,34.6,,-5.37,-2.91,-2.46,1.99,m-ITIC,-5.52,-3.82,-1.7,1.58,1:1.5,CF,3000,20,_,0,,150,2,PEDOT:PSS,,40,PDINO,,,1.93E-04,8.40E-04,,,,0.92,18.09,69.82,11.62,1162
72,37,link,10.1002/aenm.201702324,J71,2.02,23.5,,-5.4,-3.24,-2.16,1.96,m-ITIC,-5.52,-3.82,-1.7,1.58,1:1.5,CF,3000,20,_,0,,150,2,PEDOT:PSS,,40,PDINO,,,1.09E-04,4.66E-04,,,,0.944,18.09,70.59,12.05,1205.46
73,37,link,10.1002/aenm.201702324,J72,2.2,16.6,,-5.42,-3.29,-2.13,1.98,m-ITIC,-5.52,-3.82,-1.7,1.58,1:1.5,CF,3000,20,_,0,,150,2,PEDOT:PSS,,40,PDINO,,,4.60E-05,3.98E-04,,,,0.962,16.35,65.03,10.23,1022.84
74,37,link,10.1002/aenm.201702324,J73,2.08,13.9,,-5.46,-2.92,-2.54,1.98,m-ITIC,-5.52,-3.82,-1.7,1.58,1:1.5,CF,3000,20,_,0,,150,2,PEDOT:PSS,,40,PDINO,,,3.80E-05,3.10E-04,,,,0.974,16.45,66.87,10.71,1071.41
75,37,link,10.1002/aenm.201702324,J74,1.69,11.4,,-5.56,-3.06,-2.5,1.99,m-ITIC,-5.52,-3.82,-1.7,1.58,1:1.5,CF,3000,20,_,0,,150,2,PEDOT:PSS,,40,PDINO,,,2.40E-05,4.05E-04,,,,0.99,15.89,61.18,9.63,962.429
77,38,link,10.1002/adma.201703344,J91,1.92,6.97,13.4,-5.5,-3.02,-2.48,2,m-ITIC,-5.54,,-5.54,1.58,1:1.5,CF,2000,12,_,0,100,150,2,PEDOT:PSS,,40,PDINO,,10,1.02E-04,3.00E-04,,,,0.984,18.03,65.54,11.63,1162.78
572,38,link,10.1002/adma.201703344,J52,1.86,57.5,106.95,-5.17,-2.99,-2.18,1.96,m-ITIC,-5.54,,-5.54,1.58,1:1.5,CF,2000,12,_,0,100,150,2,PEDOT:PSS,,40,PDINO,,10,2.09E-05,2.38E-04,,,,0.701,17.16,49.73,5.98,598.21
78,39,link,10.1039/C7TA11339K,J71,2,23.5,,-5.4,-3.24,-2.16,1.96,m-MeIC,-5.54,-3.9,-1.64,1.54,1:1,CF,3000,,_,0,100,150,2,PEDOT:PSS,-5.1,40,PDINO,-6.21,10,2.06E-04,2.52E-04,,,,0.919,18.45,69.2,11.73,1173.32
79,39,link,10.1039/C7TA11339K,PBDB-T,1.18,11.5,,-5.33,-3.53,-1.8,1.78,m-MeIC,-5.54,-3.9,-1.64,1.54,1:1,CF,3000,,_,0,100,150,2,PEDOT:PSS,-5.1,40,PDINO,-6.21,10,2.18E-04,2.69E-04,,,,0.843,18.16,69.7,10.68,1067.03
80,39,link,10.1039/C7TA11339K,PTB7-Th,,,,-5.2,-3.6,-1.6,1.58,m-MeIC,-5.54,-3.9,-1.64,1.54,1:1,CF,3000,,CN,0.5,100,25,0,PEDOT:PSS,-5.1,40,PDINO,-6.21,10,1.36E-04,1.85E-04,,,,0.796,16.52,61.7,8.12,811.35
82,40,link,10.1039/C8CC06198J,J61,2.29,34.2,,-5.32,-3.38,-1.94,1.93,TP21,-5.46,-3.61,-1.85,1.65,1:1,CB,3000,20,_,0,100,140,10,PEDOT:PSS,,,Ca,,20,2.50E-04,7.40E-06,,,,1.05,10.92,51,5.81,584.766
83,41,link,10.1002/adma.201704713,FTAZ,2.36,42.2,,-5.38,-3.17,-2.21,2,IHIC2,-5.69,-3.86,-1.83,1.66,1:1.5,CF,3000,13.5,_,0,100,25,0,MoOx,,5,ZnO,,,1.80E-03,2.30E-05,,,,0.775,15.7,61.2,7.45,744.651
84,41,link,10.1002/adma.201704713,FTAZ,2.36,42.2,,-5.38,-3.17,-2.21,2,IOIC2,-5.41,-3.78,-1.63,1.55,1:1.5,CF,3000,13.5,DIO,0.2,100,25,0,MoOx,,5,ZnO,,,4.80E-03,6.80E-04,,,,0.9,19.7,69.3,12.30,1228.689
85,42,link,10.1002/adma.201604241,PBQ-0F,3.07,68.5,,-5.18,-3.48,-1.7,1.7,ITIC,-5.53,-3.94,-1.59,1.57,1:1,THF,,12,isopropanol,5,100,160,15,MoOx,,10,ZnO,,,7.80E-04,8.20E-04,,,,0.69,16.16,59.91,6.68,668.02
86,42,link,10.1002/adma.201604241,PBQ-QF,3.58,18.3,,-5.34,-3.62,-1.72,1.72,ITIC,-5.53,-3.94,-1.59,1.57,1:1,THF,,12,isopropanol,5,100,160,15,MoOx,,10,ZnO,,,8.60E-04,8.30E-04,,,,0.83,17.16,62.49,8.90,890.033
87,42,link,10.1002/adma.201604241,PBQ-4F,8.59,22.7,,-5.49,-3.7,-1.79,1.79,ITIC,-5.53,-3.94,-1.59,1.57,1:1,THF,,12,isopropanol,5,100,160,15,MoOx,,10,ZnO,,,1.00E-03,1.00E-03,,,,0.95,17.87,66.8,11.34,1134.03
88,43,link,10.1002/adma.201704837,PBTA-TF,2.3,,,-5.36,-3.42,-1.94,1.9,ITCC,-5.47,-3.76,-1.71,1.67,1:1,CF,,16,DIO,0.5,105,100,10,PEDOT:PSS,,,PFN-Br,,,,,,,,1,15.54,67,10.40,1041.18
89,43,link,10.1002/adma.201704837,PBTA-TF,2.3,,,-5.36,-3.42,-1.94,1.9,IT-M,-5.58,-3.85,-1.73,1.6,1:1,CF,,16,DIO,0.5,98,100,10,PEDOT:PSS,,,PFN-Br,,,,,,,,0.97,17.76,71,12.20,1223.13
90,43,link,10.1002/adma.201704837,PBTA-TF,2.3,,,-5.36,-3.42,-1.94,1.9,IT-4F,-5.66,-4.14,-1.52,1.52,1:1,CF,,16,DIO,0.5,96,100,10,PEDOT:PSS,,,PFN-Br,,,,,,,,0.73,20.24,72,10.60,1063.81
570,43,link,10.1002/adma.201704837,PBTA-TF,2.3,,,-5.36,-3.42,-1.94,1.9,IT-M,-5.58,-3.85,-1.73,1.6,1:1,THF,,16,isopropanol,1,108,100,10,PEDOT:PSS,,,PFN-Br,,,,,,,,0.96,18.37,67,12.00,1181.56
571,43,link,10.1002/adma.201704837,PBTA-TF,2.3,,,-5.36,-3.42,-1.94,1.9,IT-M,-5.58,-3.85,-1.73,1.6,1:1,o-xylene,,24,PN,0.5,112,100,10,PEDOT:PSS,,,PFN-Br,,,,,,,,0.97,18.74,72,13.10,1308.8
91,44,link,10.1002/adma.201600281,PBDB-T,1.18,11.5,,-5.33,-2.92,-2.41,1.78,ITIC,-5.51,-3.78,-1.73,1.59,1:1,CB,2500,20,DIO,0.5,100,160,,MoOx,,10,ZnO,,,2.10E-04,3.13E-04,,,,0.899,16.81,74.2,11.21,1121.32
92,45,link,10.1021/jacs.7b02677,PBDB-T-SF,3.51,20.9,,-5.4,-3.6,-1.8,1.8,IT-4F,-5.66,-4.14,-1.52,1.52,1:1,CB,2500,25,DIO,0.5,100,25,0,MoOx,,10,ZnO,,,3.25E-04,4.32E-04,,,,0.88,20.88,71.3,13.10,1310.09
567,45,link,10.1021/jacs.7b02677,PBDB-T,1.18,,13.5,-5.28,-3.48,-1.8,1.78,ITIC,-5.5,-3.89,-1.61,1.59,1:1,CB,2500,20,DIO,0.5,100,25,0,MoOx,,10,ZnO,,,2.10E-04,3.13E-04,,,,0.9,17.03,72.1,11.05,1105.08
93,46,link,10.1021/acsami.5b10211,PCDTBT-C12,2.5,20.1,50.3,-5.23,-3.26,-1.97,1.97,SM1,-5.93,-3.5,-2.43,2.43,1:2,DCB,,,_,0,52,90,3,PEDOT:PSS,,35,LiF,,0.7,3.00E-05,1.10E-05,,,,1.04,4.79,56,2.78,278.9696
94,46,link,10.1021/acsami.5b10211,PCDTBT-C12,2.5,20.1,50.3,-5.23,-3.26,-1.97,1.97,SM2,-5.98,-3.62,-2.36,2.36,1:2,DCB,,,_,0,60,90,3,PEDOT:PSS,,35,LiF,,0.7,1.10E-05,9.70E-07,,,,1.11,2.21,30,0.74,73.593
95,46,link,10.1021/acsami.5b10211,PCDTBT-C12,2.5,20.1,50.3,-5.23,-3.26,-1.97,1.97,SM3,-5.95,-3.68,-2.27,2.27,1:2,DCB,,,_,0,66,90,3,PEDOT:PSS,,35,LiF,,0.7,2.70E-05,4.70E-07,,,,1.09,1.71,30,0.56,55.917
96,46,link,10.1021/acsami.5b10211,PCDTBT-C12,2.5,20.1,50.3,-5.23,-3.26,-1.97,1.97,SM4,-5.8,-3.65,-2.15,2.15,1:2,DCB,,,_,0,57,90,3,PEDOT:PSS,,35,LiF,,0.7,1.00E-05,1.10E-09,,,,1.24,0.37,28,0.13,12.8464
97,47,link,10.1002/adma.201606054,PTB7,1.5,,128,-5.21,-3.36,-1.85,1.69,SFBRCN,-5.93,-3.86,-2.07,2.05,1:1.2,CB,2000,22,DIO,0.75,100,25,0,MoOx,,10,ZnO,,30,5.50E-05,1.20E-04,,,,0.85,13.85,60.7,7.34,714.591
98,47,link,10.1002/adma.201606054,PTB7-Th,1.7,,135,-5.27,-3.55,-1.72,,SFBRCN,-5.93,-3.86,-2.07,2.05,1:1.2,CB,2000,22,DIO,0.75,100,25,0,MoOx,,10,ZnO,,30,1.50E-04,2.20E-04,,,,0.9,17.24,64,9.90,993.024
99,48,link,10.1002/adma.201700254,PBDB-T,,,,,,0,,ITIC,-5.5,-3.9,-1.6,1.59,1:1,CB,,20,DIO,1,110,100,10,PEDOT:PSS,,10,PFN-Br,,5,,1.28E-04,,,,0.93,17,67,10.60,1059.27
100,48,link,10.1002/adma.201700254,PBDB-T,,,,,,0,,ITCC,-5.47,-3.76,-1.71,1.67,1:1,CB,,20,DIO,1,110,100,10,PEDOT:PSS,,10,PFN-Br,,5,,6.74E-04,,,,1.01,15.9,71,11.40,1140.189
101,49,link,10.1002/adma.201602642,PBDTTT-E-T,,,,-5.09,-3.48,-1.61,1.55,IEIC,-5.47,-3.9,-1.57,1.5,1:1.5,CB,,25,DIO,2,105,100,10,PEDOT:PSS,,10,PFN-Br,,5,,,,,,0.9,11.7,47,4.90,494.91
102,49,link,10.1002/adma.201602642,PBDTTT-E-T,,,,-5.09,-3.48,-1.61,1.55,IEICO,-5.32,-3.95,-1.37,1.34,1:1,CB,,20,DIO,2,95,100,10,PEDOT:PSS,,10,PFN-Br,,5,1.50E-03,4.60E-04,,,,0.82,17.7,58,8.40,841.812
419,50,link,10.1016/j.orgel.2018.10.026,PBTT,2.1,61.3,,-5.19,-3.11,-2.08,1.59,IEICO,-5.32,-3.95,-1.37,,1:1,CB,,22,DIO,3,,100,10,PEDOT:PSS,-5.1,30,PFN-Br,,5,9.08E-04,3.71E-04,,,,0.86,17.9,61.3,9.50,943.6522
420,50,link,10.1016/j.orgel.2018.10.026,PTB7-Th,2.1,61.3,,-5.26,-3.19,-2.07,1.59,IEICO,-5.32,-3.95,-1.37,,1:1,CB,,22,DIO,3,,100,10,PEDOT:PSS,-5.1,30,PFN-Br,,5,4.31E-04,1.65E-05,,,,0.91,13.3,60.5,7.30,732.2315
421,50,correct link,10.1002/adma.201602642,PBDTTT-C-T,,,,-5.11,-3.25,-1.86,1.58,IEICO,-5.32,-3.95,-1.37,1.34,,,,,,,,,,,,,,,,,,,,,0.89,12.3,59,6.50,645.873
103,51,link,10.1002/adma.201704510,PBDB-T,,,,-5.68,-3.84,-1.84,,NITI,-5.68,-3.84,-1.84,1.49,1:1,CB,,10,_,0,100,25,0,PEDOT:PSS,-5.1,30,PNDIT-F3N,,,7.90E-05,2.10E-05,,,,0.86,17.8,84,9.49,1285.872
104,52,link,10.1002/adma.201701308,PTB7-Th,1.7,,124,-5.2,-3.59,-1.61,,IHIC,-5.45,-3.93,-1.52,1.38,1:1.5,DCB,1000,20,CN,1,100,25,0,MoOx,,5,ZnO,,30,6.80E-04,1.20E-03,,,,0.744,17.1,60.9,9.41,774.794
105,53,link,10.1039/c7cc03122j,P3HT,,,,-5.2,-3.2,-2,,N3,-5.76,-3.97,-1.79,1.79,1:1.2,o-DCB,,,_,0,60,25,0,PEDOT:PSS,,38,Ca,,20,,2.98E-03,,,,0.87,8.87,60,4.62,463.014
106,53,link,10.1039/c7cc03122j,P3HT,,,,-5.2,-3.2,-2,,N4,-5.54,-3.67,-1.87,1.87,1:1.2,o-DCB,,,_,0,60,25,0,PEDOT:PSS,,38,Ca,,20,,1.83E-04,,,,0.91,6.69,58,3.52,353.0982
107,54,link,10.1039/C7CC06369E,P3HT,,,,-5.2,-3.2,-2,,N5,-6.34,-3.73,-2.61,2.03,1:1.2,o-DCB,,,_,0,70,25,0,PEDOT:PSS,,38,Ca,,20,,,,,,0.97,7.03,59,4.03,402.3269
108,54,link,10.1039/C7CC06369E,P3HT,,,,-5.2,-3.2,-2,,N6,-6.38,-3.98,-2.4,1.53,1:1.2,o-DCB,,,_,0,70,25,0,PEDOT:PSS,,38,Ca,,20,,,,,,0.9,10.78,63,6.11,611.226
109,55,link,10.1020/jacs.7b13239,PTB7-Th,,,,-5.2,-3.59,-1.61,,DTPC-IC,-5.21,-3.97,-1.24,1.24,1:1.5,DCB,2000,25,_,0,100,25,0,PEDOT:PSS,,,C60-bissalt,,,4.60E-04,3.70E-05,,,,0.863,8.53,42.4,3.12,312.123
110,55,link,10.1020/jacs.7b13239,PTB7-Th,,,,-5.2,-3.59,-1.61,,DTPC-DFIC,-5.31,-4.1,-1.21,1.21,1:1.5,DCB,2000,25,DIO,0.5,100,25,0,PEDOT:PSS,,,C60-bissalt,,,5.00E-04,1.60E-04,,,,0.76,21.92,61.3,10.21,1021.21
111,56,link,10.1002/adma.201604964,PBDB-T,,,,-5.33,-2.92,-2.41,,DICTF,-5.67,-3.79,-1.88,1.82,1:1.2,CB,1700,22,DIO,0.3,,25,0,PEDOT:PSS,,40,PDIN,,14,1.56E-05,1.49E-05,,,,0.93,10.3,59,5.93,565.161
112,56,link,10.1002/adma.201604964,PBDB-T,,,,-5.33,-2.92,-2.41,,FDICTF,-5.43,-3.71,-1.72,1.63,1:1.2,CB,1700,22,DIO,0.3,,25,0,PEDOT:PSS,,40,PDIN,,14,3.37E-05,2.40E-05,,,,0.94,15.81,66,10.06,980.8524
113,57,link,10.1021/acsami.6b15717,P3HT,,,,-5.08,-2.96,-2.12,,MPU1,-5.81,-3.99,-1.82,1.48,1:1,CF,2500,16,DIO,3,90,40,10,PEDOT:PSS,,40,PFN,,15,2.58E-05,8.15E-05,,,,0.64,4.22,42,1.14,113.4336
114,57,link,10.1021/acsami.6b15717,P_dFBT-DTS,,,,-5.31,-3.33,-1.98,1.75,MPU1,-5.81,-3.99,-1.82,1.48,1:1,CF,2500,16,DIO,3,90,40,10,PEDOT:PSS,,40,PFN,,15,5.11E-05,8.83E-05,,,,1.04,8.36,48,4.17,417.3312
115,58,link,10.1021/jacs.7b00566,PBDB-T,,,,-5.33,-2.92,-2.41,,IDT-BC6,-5.55,-3.83,-1.72,1.75,1:1,o-DCB,1750,8,_,0,100,25,0,MoOx,-5.49,8,ZnO,,30,2.89E-06,1.38E-06,,,,0.92,5.63,44,2.30,227.9024
116,58,link,10.1021/jacs.7b00566,PBDB-T,,,,-5.33,-2.92,-2.41,,IDT-BOC6,-5.51,-3.78,-1.73,1.63,1:1,o-DCB,1750,8,DIO,1,100,25,0,MoOx,-5.49,8,ZnO,,30,1.68E-04,1.98E-04,,,,1.01,17.52,54,9.60,955.5408
117,59,link,10.1002/adma.201705969,PTB7-Th,1.7,,124,-5.2,-3.59,-1.61,,ITIC3,-5.54,-3.9,-1.64,1.55,1:1.5,CF,1500,10,_,0,,25,0,MoOx,,5,ZnO,,30,6.80E-04,2.70E-04,,,,0.763,16.8,63.1,8.09,808.841
118,59,link,10.1002/adma.201705969,PTB7-Th,1.7,,124,-5.2,-3.59,-1.61,,FOIC,-5.36,-3.92,-1.44,1.32,1:1.5,CF,1500,10,_,0,80,25,0,MoOx,,5,ZnO,,30,1.00E-03,5.10E-04,,,,0.743,24,67.1,12.00,1196.53
122,60,link,10.1039/c7ta05108e,P3HT,,,,-5,-3.1,-1.9,,ATT-3,-5.32,-3.4,-1.92,1.61,1:0.8,CF,3000,16.2,_,0,70,130,10,PEDOT:PSS,,30,Ca,,20,4.71E-05,9.60E-06,,,,0.927,10.93,62,6.26,628.191
123,61,link,10.1039/C7TA04431C,PBDB-T,,,,-5.33,-2.92,-2.41,,IT-O1,-5.38,-3.33,-2.05,1.59,1:1,CB,3000,10,_,0,101,130,20,PEDOT:PSS,,30,PFN-Br,,10,1.20E-04,5.43E-05,,,,0.93,17.35,72,11.60,1161.756
124,61,link,10.1039/C7TA04431C,PBDB-T,,,,-5.33,-2.92,-2.41,,IT-O2,-5.37,-3.31,-2.06,1.59,1:1,CB,3000,10,_,0,94,130,20,PEDOT:PSS,,30,PFN-Br,,10,4.58E-04,8.40E-05,,,,0.97,15.34,62.6,9.30,931.475
125,61,link,10.1039/C7TA04431C,PBDB-T,,,,-5.33,-2.92,-2.41,,IT-O3,-5.36,-3.31,-2.05,1.59,1:1,CB,3000,10,_,0,90,130,20,PEDOT:PSS,,30,PFN-Br,,10,1.50E-05,1.77E-06,,,,0.98,9.8,51.4,4.90,493.6456
126,61,link,10.1039/C7TA04431C,PBDB-T,,,,-5.33,-2.92,-2.41,,IT-O4,-5.35,-3.3,-2.05,1.59,1:1,CB,3000,10,_,0,89,130,20,PEDOT:PSS,,30,PFN-Br,,10,7.34E-05,1.71E-06,,,,0.95,9.16,47.9,4.20,416.8258
127,62,link,10.1039/C7QM00025A,PTPDBDT,,,,-5.6,-3.75,-1.85,1.85,ITIC,-5.61,-4.02,-1.59,1.59,1:1,CF:n-hexane (9:1),,,_,0,65,25,0,ZnO,,,MoOx,,10,1.10E-04,1.40E-04,,,,1.04,10.6,58,6.40,639.392
128,62,link,10.1039/C7QM00025A,PTPDBDT,,,,-5.6,-3.75,-1.85,1.85,F-ITIC,-5.65,-4.09,-1.56,1.56,1:1,CF:n-hexane (9:1),,,_,0,40,150,30,PEDOT:PSS,,,MoOx,,10,5.70E-05,3.10E-04,,,,0.94,14.1,66,8.80,874.764
129,62,link,10.1039/C7QM00025A,PTPDBDT,,,,-5.6,-3.75,-1.85,1.85,Cl-ITIC,-5.7,-4.14,-1.56,1.56,1:1,CF:n-hexane (9:1),,,_,0,40,150,30,PEDOT:PSS,,,MoOx,,10,7.80E-05,5.20E-04,,,,0.94,15.6,65,9.50,953.16
130,62,link,10.1039/C7QM00025A,PTPDBDT,,,,-5.6,-3.75,-1.85,1.85,Br-ITIC,-5.73,-4.2,-1.53,1.53,1:1,CF:n-hexane (9:1),,,_,0,40,150,30,PEDOT:PSS,,,MoOx,,10,9.30E-05,5.10E-04,,,,0.93,15.4,66,9.40,945.252
131,62,link,10.1039/C7QM00025A,PTPDBDT,,,,-5.6,-3.75,-1.85,1.85,I-ITIC,-5.68,-4.14,-1.54,1.55,1:1,CF:n-hexane (9:1),,,_,0,40,150,30,PEDOT:PSS,,,MoOx,,10,7.10E-05,4.10E-04,,,,0.93,14.5,65,8.90,876.525
132,63,link,10.1021/jacs.7b01170,PBDB-T,,,,-5.33,-2.92,-2.41,,NFBDT,-5.4,-3.83,-1.57,1.56,1:0.8,CF,1500,9,_,0,100,25,0,PEDOT:PSS,,30,PDIN,,,3.68E-04,1.38E-04,,,,0.863,17.35,66.3,10.15,992.713
133,64,link,10.1002/adma.201704904,PBDB-T,,,,-5.33,-2.92,-2.41,,NCBDT,-5.36,-3.89,-1.47,1.45,1:0.8,CF,1400,9,_,0,100,25,0,PEDOT:PSS,,15,PDINO,,,3.92E-04,1.58E-04,,,,0.835,19.73,70.2,11.62,1156.51
272,64,link,10.1002/adma.201704904,PBDB-T,,,,-5.33,-2.92,-2.41,,NFBDT,-5.4,-3.83,-1.57,1.56,1:0.8,CF,1400,9,_,0,100,25,0,PEDOT:PSS,,15,PDINO,,,3.68E-04,1.38E-04,,,,0.868,17.85,67.2,10.42,1041.18
134,65,link,10.1039/C8TA08961B,J71,,,,-5.48,-3.6,-1.88,,ZITI-4F,-5.66,-3.81,-1.85,1.47,1:1,CF,3000,18,_,0,110,120,10,PEDOT:PSS,-5.1,30,PNDIT-F3N,,,3.83E-04,1.86E-04,,,,0.85,21.3,72.76,13.18,1317.32
135,66,link,10.1002/adma.201800403,J71,,,,-5.48,-3.6,-1.88,2,ZITI,-5.59,-3.74,-1.85,1.53,1:1,CF,3000,17,_,0,,120,10,PEDOT:PSS,-5.1,30,PNDIT-F3N,,,1.70E-04,1.13E-04,,,,0.93,20.24,68.61,13.04,1291.46
136,67,link,10.1021/acsami.7b12612,PBDB-T,1.5,30,,-5.33,-2.92,-2.41,,DTCCIC-C17,-5.46,-3.65,-1.81,1.6,1:1.5,CB,1600,,DIO,0.5,150,25,0,MoOx,-5.49,7,ZnO,,30,,,,,,0.96,14.03,67,9.02,902.4096
137,68,link,10.1038/ncomms11585,P3HT,,,,-5,-3.1,-1.9,,O-IDTBR,-5.56,-3.93,-1.63,1.63,1:1,CB,2000,24,_,0,75,130,10,MoOx,,10,ZnO,,30,,4.70E-06,,,,0.72,13.9,60,6.30,600.48
138,68,link,10.1038/ncomms11585,P3HT,,,,-5,-3.1,-1.9,,EH-IDTBR,-5.58,-3.9,-1.68,1.68,1:1,CB,2000,24,_,0,75,130,10,MoOx,,10,ZnO,,30,3.00E-04,5.80E-06,,,,0.76,12.1,62,6.00,570.152
139,69,link,10.1021/ja5110602,P3HT,,,,-5,-3.1,-1.9,,FBR,-5.7,-3.57,-2.13,2.14,1:1,CF:DCB (80:20),5000,16,_,0,80,110,15,MoOx,,10,ZnO,,30,,2.60E-05,,,,0.82,7.95,63,4.11,410.697
140,70,link,10.1002/adma.201800052,PBDB-T,,,,-5.23,-3.18,-2.05,,IDTCN,-5.87,-3.92,-1.95,1.65,1:1,CB,2000,20,DIO,0.5,100,110,3,MoOx,,3,ZnO,,,1.38E-04,2.08E-04,,,,0.85,12.06,62.48,6.40,640.482
142,72,link,10.1016/j.orgel.2018.06.040,P3HT,,,,-5.2,-3.2,-2,,NAI-FN-NAI(BO),-6.07,-3.96,-2.11,2.13,1:1,CB,,20,_,0,95,25,0,PEDOT:PSS,,30,LiF,,1,,,,,,0.9,9.3,47,3.80,393.39
552,72,link,10.1016/j.orgel.2018.06.040,P3HT,,,,-5.2,-3.2,-2,,NAI-FN-NAI(DT),-6.09,-3.97,-2.12,2.13,1:1,CB,,20,_,0,95,25,0,PEDOT:PSS,,30,LiF,,1,,,,,,0.89,2.55,35,0.75,79.4325
553,72,link,10.1016/j.orgel.2018.06.040,P3HT,,,,-5.2,-3.2,-2,,PI-FN-PI(DT),-6.02,-3.92,-2.1,2.07,1:1,CB,,20,_,0,95,25,0,PEDOT:PSS,,30,LiF,,1,,,,,,0.91,4.95,48,2.20,216.216
572,72,link,10.1002/adma.201606396,PTzBI,1.6,90.9,,-5.34,-3.46,-1.88,1.81,ITIC,,,0,,1:1,CB,,20,DBE,0.5,95,130,10,PEDOT:PSS,-5,40,PFN-Br,-2.18,5,8.60E-05,2.30E-05,,,,0.87,18.29,64.34,10.24,1023.8
143,73,link,10.1021/acsami.6b16395,P3HT,,,,-5.2,-3.2,-2,,NAI-FN-NAI(HD),-6.06,-3.98,-2.08,2.12,1:1,CB,,20,_,0,95,25,0,PEDOT:PSS,,30,LiF,,1,,,,,,0.88,7.55,43,2.80,285.692
144,73,link,10.1021/acsami.6b16395,P3HT,,,,-5.2,-3.2,-2,,NAI-FCN-NAI(BO),-6.14,-4.21,-1.93,1.61,1:1,CB,,20,_,0,95,25,0,PEDOT:PSS,,30,LiF,,1,,,,,,0.58,3.25,39,0.80,73.515
145,74,link,10.1021/jacs.6b12755,FTAZ,,,,-5.38,-3.17,-2.21,,INIC,-5.45,-3.88,-1.57,1.57,1:1.5,CF,3000,12.5,DIO,0.25,100,25,0,MoOx,,5,ZnO,,30,1.20E-03,6.10E-05,,,,0.957,13.51,57.9,7.70,748.593
146,74,link,10.1021/jacs.6b12755,FTAZ,,,,-5.38,-3.17,-2.21,,INIC1,-5.54,-3.97,-1.57,1.56,1:1.5,CF,3000,12.5,DIO,0.25,100,25,0,MoOx,,5,ZnO,,30,1.20E-03,1.00E-04,,,,0.929,16.63,64.3,10.10,993.388
147,74,link,10.1021/jacs.6b12755,FTAZ,,,,-5.38,-3.17,-2.21,,INIC2,-5.52,-3.98,-1.54,1.52,1:1.5,CF,3000,12.5,DIO,0.25,100,25,0,MoOx,,5,ZnO,,30,1.20E-03,1.20E-04,,,,0.903,17.56,66.8,10.80,1059.23
148,74,link,10.1021/jacs.6b12755,FTAZ,,,,-5.38,-3.17,-2.21,,INIC3,-5.52,-4.02,-1.5,1.48,1:1.5,CF,3000,12.5,DIO,0.25,100,25,0,MoOx,,5,ZnO,,30,1.20E-03,1.70E-04,,,,0.857,19.44,67.4,11.50,1122.89
149,75,link,10.1002/adma.201706571,PTB7-Th,,,,-5.2,-3.59,-1.61,,F6IC,-5.66,-4.02,-1.64,1.36,1:1.7,CF,1500,10,DPE,0.5,,25,0,MoOx,,5,ZnO,,,1.30E-04,4.50E-05,,,,0.611,18.07,64,7.10,706.609
150,75,link,10.1002/adma.201706571,PTB7-Th,,,,-5.2,-3.59,-1.61,,F8IC,-5.43,-4,-1.43,1.27,1:1.7,CF,1500,10,DPE,0.5,,25,0,MoOx,,5,ZnO,,,2.00E-04,1.60E-04,,,,0.64,25.12,67.6,10.90,1086.79
151,75,link,10.1002/adma.201706571,PTB7-Th,,,,-5.2,-3.59,-1.61,,F10IC,-5.26,-3.96,-1.3,1.25,1:1.7,CF,1500,10,DPE,0.5,,25,0,MoOx,,5,ZnO,,,1.80E-04,1.00E-04,,,,0.73,20.83,66.8,10.20,1015.75
152,76,link,10.1039/c4ta06004k,PBDTTT-C-T,,,,-5.2,-3.34,-1.86,,DC-IDT2T,-5.43,-3.85,-1.58,1.55,1.2:1,o-DCB:CF (6.667:1),,20,_,0,70,25,0,PEDOT:PSS,,35,Ca,,20,2.00E-03,1.50E-03,,,,0.9,8.33,52.3,3.93,392.0931
153,77,link,10.1039/C6EE02598F,Pff4TBT-2DT,,,,-5.34,-3.7,-1.64,1.61,FBR,-5.83,-3.75,-2.08,2.08,1:1,CB,,20,_,0,120,25,0,MoOx,,10,ZnO,,35,,,,,,1.12,11.5,61,7.80,785.68
154,77,link,10.1039/C6EE02598F,Pff4TBT-2DT,,,,-5.34,-3.7,-1.64,1.61,FTTB,-5.65,-3.62,-2.03,2.04,1:1,CB,,20,_,0,120,25,0,MoOx,,10,ZnO,,35,,,,,,1.05,10.3,45,5.00,486.675
155,77,link,10.1039/C6EE02598F,Pff4TBT-2DT,,,,-5.34,-3.7,-1.64,1.61,IDFBR,-5.75,-3.7,-2.05,2.15,1:1,CB,,20,_,0,120,25,0,MoOx,,10,ZnO,,35,,,,,,1.08,4.4,38,1.75,180.576
156,77,link,10.1039/C6EE02598F,Pff4TBT-2DT,,,,-5.34,-3.7,-1.64,1.61,O-IDTBR,-5.5,-3.9,-1.6,1.6,1:1,CB,,20,_,0,120,25,0,MoOx,,10,ZnO,,35,,,,,,1.07,15,62,9.95,995.1
157,78,link,10.1039/C8TA09370A,J71,,,,-5.4,-3.24,-2.16,,TTz1,-5.59,-3.66,-1.93,1.65,1:2,CF,3000,15,DIO,0.25,100,25,0,MoOx,,10,ZnO,,30,4.24E-04,1.46E-04,,,,0.9,15.43,63.18,8.77,877.381
158,78,link,10.1039/C8TA09370A,J71,,,,-5.4,-3.24,-2.16,,TTz2,-5.45,-3.5,-1.95,1.61,1:2,CF,3000,15,DIO,0.25,100,25,0,MoOx,,10,ZnO,,30,2.92E-04,8.74E-05,,,,0.92,12.75,53.73,6.30,630.2529
159,79,link,10.1039/C7TA02141K,PBDB-T,,,,-5.23,-3.42,-1.81,1.81,FTIC-C8C6,-5.62,-3.83,-1.79,1.63,1:1,DCB,,8,DIO,0.5,200,25,0,MoOx,,,PFN-Br,,5,2.91E-05,1.94E-05,,,,0.92,16.1,67.46,9.91,999.218
160,79,link,10.1039/C7TA02141K,PBDB-T,,,,-5.23,-3.42,-1.81,1.81,FTIC-C6C6,-5.6,-3.81,-1.79,1.63,1:1,DCB,,8,DIO,0.3,200,25,0,MoOx,,,PFN-Br,,5,2.78E-05,1.39E-05,,,,0.91,16.03,63.17,9.18,921.48
161,79,link,10.1039/C7TA02141K,PBDB-T,,,,-5.23,-3.42,-1.81,1.81,FTIC-C6C8,-5.64,-3.81,-1.83,1.63,1:1,DCB,,8,DIO,0.5,200,25,0,MoOx,,,PFN-Br,,5,4.60E-05,3.81E-05,,,,0.92,18.55,64.72,11.12,1104.51
162,80,link,10.1016/j.solener.2017.03.090,PTB7-Th,,,,-5.2,-3.5,-1.7,,NDI-TR,-5.81,-3.95,-1.86,1.87,,,,,_,0,175,25,0,PEDOT:PSS,-5,,_,_,_,1.30E-03,6.00E-05,,,,0.64,7.01,69,3.07,309.5616
163,81,link,10.1002/aenm.201801203,PBDB-T,,,,-5.23,-3.42,-1.81,,IXIC,-5.13,-3.78,-1.35,1.35,1:1,CF,2000,14,_,0,100,100,5,PEDOT:PSS,,40,ZrAcAc,,10,8.40E-04,4.10E-04,,,,0.82,20.9,65.4,11.30,1120.83
164,81,link,10.1002/aenm.201801203,PBDB-T,,,,-5.23,-3.42,-1.81,,IXIC-4Cl,-5.2,-3.95,-1.25,1.25,1:1,CF,2000,14,_,0,100,100,5,PEDOT:PSS,,40,ZrAcAc,,10,8.90E-04,4.90E-04,,,,0.69,22.9,71.2,11.20,1125.03
165,82,link,10.1039/c7ta02486j,HFQx-T,,,,-5.45,-3.5,-1.95,1.76,ITTC,-5.49,-3.85,-1.64,1.61,1:1,CF,2800,18,_,0,100,130,10,PEDOT:PSS,-5.1,,PDINO,,10,6.00E-05,8.10E-05,,,,0.88,16.49,71,10.40,1030.3
166,83,link,10.1039/c7ta10136h,PBDB-T,,,,-5.23,-3.42,-1.81,,ITIC-OE,-5.67,-4.03,-1.64,1.57,1:1,CB,,,DIO,0.5,103,120,10,PEDOT:PSS,,40,PFN-Br,,5,3.50E-04,1.20E-05,,,,0.85,14.8,67,8.40,842.86
167,83,link,10.1039/c7ta10136h,PBDB-T,,,,-5.23,-3.42,-1.81,,ITIC,-5.68,-4.03,-1.65,1.58,1:1,CB,,,DIO,0.5,100,120,10,PEDOT:PSS,,40,PFN-Br,,5,3.20E-04,3.10E-04,,,,0.89,16.5,71,10.40,1042.635
168,84,link,10.1002/aenm.201700183,PBDB-T,,,,-5.23,-3.42,-1.81,,IT-OM-1,-5.5,-3.76,-1.74,1.67,1:1,CB,3000,20,_,0,95,150,30,MoOx,,10,ZnO,,30,1.78E-04,1.58E-06,,,,1.01,12.31,51,6.30,634.0881
169,84,link,10.1002/aenm.201700183,PBDB-T,,,,-5.23,-3.42,-1.81,,IT-OM-2,-5.49,-3.86,-1.63,1.59,1:1,CB,3000,20,_,0,105,150,30,MoOx,,10,ZnO,,30,1.13E-03,2.86E-04,,,,0.93,17.53,73,11.80,1190.11
170,84,link,10.1002/aenm.201700183,PBDB-T,,,,-5.23,-3.42,-1.81,,IT-OM-3,-5.52,-3.8,-1.72,1.64,1:1,CB,3000,20,_,0,105,150,30,MoOx,,10,ZnO,,30,6.43E-04,8.21E-05,,,,0.97,16.38,68,10.80,1080.42
171,84,link,10.1002/aenm.201700183,PBDB-T,,,,-5.23,-3.42,-1.81,,IT-OM-4,-5.49,-3.81,-1.68,1.63,1:1,CB,3000,20,_,0,105,150,30,MoOx,,10,ZnO,,30,4.53E-04,4.33E-05,,,,0.96,14.69,56,7.90,789.7344
172,85,link,10.1002/aenm.201800204,PBDB-T,,,,-5.33,-3.53,-1.8,,ITCT-DM,-5.48,-3.9,-1.58,1.58,1:1,CB,,20,DIO,0.5,100,120,10,PEDOT:PSS,,40,N719:PrC60MAI,,,8.50E-05,6.68E-04,,,,0.904,16.32,65,10.56,958.9632
173,85,link,10.1002/aenm.201800204,PBDB-T,,,,-5.33,-3.53,-1.8,,ITCT,-5.52,-3.45,-2.07,,1:1,CB,,20,_,0,100,120,10,PEDOT:PSS,,40,N719:PrC60MAI,,,6.50E-05,3.30E-04,,,,0.85,17.88,72,11.27,1094.256
174,86,link,10.1002/adfm.201702194,PBDB-T,,,,-5.23,-3.18,-2.05,,ITCPTC-Th,-5.68,-4.03,-1.65,1.6,1:1,CB,2500,20,DIO,0.5,100,25,0,MoOx,,3,ZnO,,,8.76E-04,7.46E-04,,,,0.856,17.05,72.7,10.61,1061.04
175,86,link,10.1002/adfm.201702194,PBDB-T,,,,-5.23,-3.18,-2.05,,ITCPTC-Se,-5.65,-4,-1.65,1.59,1:1,CB,2500,20,DIO,0.5,100,25,0,MoOx,,3,ZnO,,,6.96E-04,4.95E-04,,,,0.869,15.2,68.3,9.02,902.161
176,87,link,10.1039/C8TA07954D,PTB7-Th,,,,-5.22,-3.64,-1.58,,IEICO-4F,-5.44,-4.19,-1.25,,1:1.5,CB,,37.5,DIO,,100,100,10,PEDOT:PSS,,,PFN-Br,,5,2.11E-04,7.21E-05,,,,0.72,25.16,61.45,11.13,1113.18
177,87,link,10.1039/C8TA07954D,PBDB-T,,,,-5.33,-3.53,-1.8,,ITCC,-5.47,-3.76,-1.71,,1:1,CB,,20,DIO,,100,100,10,PEDOT:PSS,,,PFN-Br,,5,1.15E-04,2.52E-04,,,,0.98,16.14,71.32,11.28,1128.08
178,88,link,10.1039/C8SC02018C,PBDB-T,,,,,,0,,MeIC,-5.57,-3.94,-1.63,1.53,1:1,CB,,20,DIO,0.5,100,120,8,PEDOT:PSS,,40,PDIN,,10,7.61E-04,3.63E-04,,,,0.896,18.07,74.3,12.03,1202.97
179,89,link,10.1016/j.dyepig.2017.01.039,PTB7-Th,,,,-5.31,-3.71,-1.6,,IFTIC,-5.42,-3.85,-1.57,1.82,1:2,o-DCB,2000,25,_,0,85,25,0,MoOx,,10,ZnO,,35,8.24E-05,3.02E-05,,,,0.9,11.85,53.5,5.77,570.5775
180,90,link,10.1039/C5TA05901A,PBDTTT-C-T,,,,-5.11,-3.25,-1.86,,IDT-2BM,-5.6,-3.8,-1.8,1.6,1.5:1,o-DCB,,30,CN,6,,25,0,PEDOT:PSS,,35,Ca,,20,8.30E-05,5.00E-07,,,,0.76,9.81,54.4,4.19,405.585
181,90,link,10.1039/C5TA05901A,PBDTTT-C-T,,,,-5.11,-3.25,-1.86,,IDTT-2BM,-5.5,-3.8,-1.7,1.54,1.5:1,o-DCB,,30,DIO,3,,25,0,PEDOT:PSS,,35,Ca,,20,1.70E-03,2.80E-06,,,,0.845,9.67,56.8,4.70,464.121
182,91,link,10.1039/c7ta05774a,PTB7-Th,,,,-5.42,-3.81,-1.61,,IDT-T,-5.41,-3.96,-1.45,1.45,1:1.3,CB,,10,CN,1.5,,25,0,MoOx,,10,ZnO,,,3.10E-04,7.50E-05,,,,0.84,9.54,50.9,4.08,407.892
183,91,link,10.1039/c7ta05774a,PBDB-T,,,,-5.21,-3.41,-1.8,,IDT-Tz,-5.62,-4.09,-1.53,1.53,1:1,CB,,10,CN,1.5,,25,0,MoOx,,10,ZnO,,,,,,,,0.88,13.67,70.8,8.52,851.696
192,92,link,10.1039/c6ta00612d,PTB7-Th,,,,-5.22,-3.64,-1.58,,IDT-IC,-5.61,-3.88,-1.73,1.72,1:1.5,o-DCB,1500,,_,0,127,150,10,PEDOT:PSS,-5.1,,PDINO,,,,2.09E-05,,,,0.83,9.53,40,3.16,316.396
185,93,link,10.1039/C4EE03424D,PTB7-Th,,,,-5.2,-3.59,-1.61,,IEIC,-5.42,-3.82,-1.6,1.57,1:1.5,o-DCB,1000,25,_,0,110,25,0,PEDOT:PSS,,30,PDIN,,14,4.50E-04,1.00E-04,,,,0.97,13.55,48,6.31,630.888
186,94,link,10.1039/C7TA06631G,PTB7-Th,,,,-5.22,-3.64,-1.58,,IDT-N,-5.73,-4.08,-1.65,1.66,1:1,CF,2000,10,_,0,100,100,10,PEDOT:PSS,,,PNDIT-F3N-Br,,5,,,,,,0.73,13.02,57.7,5.50,548.415
187,94,link,10.1039/C7TA06631G,PTB7-Th,,,,-5.22,-3.64,-1.58,,IDT-T-N,-5.58,-4.06,-1.52,1.52,1:1,CF,2000,10,CN,2,100,100,10,PEDOT:PSS,,,PNDIT-F3N-Br,,5,,,,,,0.87,14.67,51.38,6.60,655.758
188,94,link,10.1039/C7TA06631G,PBDB-T,,,,-5.33,-3.53,-1.8,,IDT-N,-5.73,-4.08,-1.65,1.66,1:1,CF,2000,10,CN,0.25,100,100,10,PEDOT:PSS,,,PNDIT-F3N-Br,,5,4.57E-04,2.87E-04,,,,0.79,15.88,71.91,8.99,902.125
189,94,link,10.1039/C7TA06631G,PBDB-T,,,,-5.33,-3.53,-1.8,,IDT-T-N,-5.58,-4.06,-1.52,1.52,1:1,CF,2000,10,CN,2,100,100,10,PEDOT:PSS,,,PNDIT-F3N-Br,,5,1.43E-04,6.07E-05,,,,0.94,14.03,56.11,7.40,739.99
0,95,link,10.1039/C8TA08410F,PBDB-T,,,,-5.23,-3.42,-1.81,,IDT-EDOT,-5.43,-3.8,-1.63,1.41,1:1.2,o-DCB,1200,,DIO,0.2,100,25,0,MoOx,,8.5,ZnO,,,,,,,,0.86,21.34,62,11.32,1137.85
191,95,link,10.1039/C8TA08410F,PBDB-T,,,,-5.23,-3.42,-1.81,,IDT-PDOT,-5.39,-3.77,-1.62,1.43,1:0.5,o-DCB,1200,,_,0,100,25,0,MoOx,,8.5,ZnO,,,,,,,,0.85,5.26,48.9,2.18,218.6319
193,96,link,10.1039/C8TA11972D,PTB7-Th,,,,-5.2,-3.6,-1.6,,p-IDTIDT-IC,-5.42,-3.82,-1.6,1.53,1:1.5,o-DCB,1500,25,_,0,150,150,2,PEDOT:PSS,,,PDINO,,,,4.54E-05,,,,0.94,14.49,47.5,6.48,646.9785
194,97,link,10.1039/C7TA10461H,PBDB-TF,2.3,22.9,,-5.48,-3.64,-1.84,1.8,IDT-C6,-5.59,-3.35,-2.24,1.65,1:1,CF,,16,DIO,0.5,110,100,10,PEDOT:PSS,,10,PFN-Br,,5,3.39E-04,3.85E-04,,,,0.96,17.5,74,12.50,1243.2
195,97,link,10.1039/C7TA10461H,PBDB-TF,2.3,22.9,,-5.48,-3.64,-1.84,1.8,IDT-PhC6,-5.56,-3.32,-2.24,1.74,1:1,CF,,16,DIO,0.5,100,100,10,PEDOT:PSS,,10,PFN-Br,,5,2.06E-04,1.37E-05,,,,1,13,43,5.60,559
196,98,link,10.1039/C7TC00706J,PTB7-Th,,,,,,0,,IDT-2BM,-5.56,-3.65,-1.91,1.63,1:1.5,CB,3000,,DPE,2,,25,0,MoOx,,10,ZnO,,,2.87E-03,6.83E-05,,,,0.826,9.29,52,3.97,399.024
197,99,link,10.1002/aenm.201802050,FTAZ,,,,,,0,,IDCIC,-5.19,-3.72,-1.47,1.45,,CF,,23.3,CN:DIO (1:1),0.25,120,100,20,MoOx,,5,ZnO,,30,3.00E-04,1.50E-04,,,,0.87,21.98,71.03,13.58,1358.28
198,100,link,10.1021/acs.chemmater.7b02811,PBDB-T,,,,-5.33,-2.92,-2.41,,FDNCTF,-5.42,-3.73,-1.69,1.6,1:0.8,CB,1500,19.8,_,0,120,25,0,PEDOT:PSS,,30,PDINO,,,1.77E-04,1.00E-04,,,,0.94,15.8,66,10.00,980.232
[...]
447,226,correct link,10.1002/solr.201800186,PBDT-Se-TAZ,1.64415,42.429,25.806,-5.23,-3.45,-1.78,1.92,ITIC,-5.48,-3.83,-1.65,,1:1,CF,2000,16,DIO,0.3,100,25,0,MoOx,,10,ZnO,,30,1.33E-03,8.70E-04,,,,0.81,18.63,66.7,10.07,1006.52
448,226,correct link,10.1002/solr.201800186,PBDTS-Se-TAZ,1.93806,56.473,29.139,-5.29,-3.49,-1.8,1.9,ITIC,-5.48,-3.83,-1.65,,1:1,CF,2000,16,DIO,0.3,100,25,0,MoOx,,10,ZnO,,30,2.47E-03,2.03E-03,,,,0.84,19.51,75.1,12.31,1230.77
449,227,link,10.1002/adma.201707170,PBDB-TF,,,,-5.54,-3.65,-1.89,,IT-M,-5.58,-3.93,-1.65,1.59,1:1,CB,,22,DIO,0.75,90,100,10,PEDOT:PSS,,35,PFN-Br,,,,,,,,1.02,15.79,65,10.50,1046.877
450,227,link,10.1002/adma.201707170,PBDB-TF,,,,-5.54,-3.65,-1.89,,IT-4F,-5.67,-4.15,-1.52,1.5,1:1,CB,,20,DIO,1,90,100,10,PEDOT:PSS,,35,PFN-Br,,,,,,,,0.87,20.38,77,13.70,1365.26
451,228,link,10.1039/C7TA11059F,PBZ1,1.88,27.3,51.324,-5.27,-3.06,-2.21,1.96,ITIC,-5.6,-3.85,-1.75,,1:1,Toluene,,,_,0,,160,10,MoOx,,10,ZnO,,,4.36E-04,2.98E-04,,,,0.74,15.7,49.8,5.80,578.5764
452,228,link,10.1039/C7TA11059F,PBZ-m-CF3,1.74,33.6,58.464,-5.49,-3.22,-2.27,1.99,ITIC,-5.6,-3.85,-1.75,,1:1,Toluene,,,_,0,,160,10,MoOx,,10,ZnO,,,5.08E-04,3.96E-04,,,,0.94,18.4,60.2,10.40,1041.22
453,229,link,10.1039/C8TA03753A,PBDB-TF,,,,-5.48,-3.64,-1.84,1.81,HF-PCIC,-5.53,-3.83,-1.7,1.5,1:1.2,CB,2000,20,CN,1,100,110,10,MoOx,-5.3,10,ZnO,-4.4,,1.68E-04,1.35E-04,,,,0.92,16.01,72.42,10.97,1066.69
454,229,link,10.1039/C8TA03753A,PBDB-TF,,,,-5.48,-3.64,-1.84,1.81,HFO-PCIC,-5.5,-3.81,-1.69,1.48,1:1.2,CB,2000,20,CN,1,100,110,10,MoOx,-5.3,10,ZnO,-4.4,,8.60E-05,2.50E-05,,,,0.93,12.62,70.99,8.36,833.181
455,229,link,10.1039/C8TA03753A,PBDB-TF,,,,-5.48,-3.64,-1.84,1.81,OF-PCIC,-5.66,-3.86,-1.8,1.59,1:1.2,CB,2000,20,CN,1,100,110,10,MoOx,-5.3,10,ZnO,-4.4,,1.29E-04,3.20E-05,,,,0.91,13.76,73.37,9.09,918.71
456,229,link,10.1002/adma.201705208,PBDB-T,,,,-5.33,-3.53,-1.8,,DF-PCIC,-5.49,-3.77,-1.72,1.59,1:1.4,,2000,20,CN,0.5,100,130,10,MoOx,-5.3,10,ZnO/PFN,-4.4,,1.28E-04,2.60E-05,,,,0.91,15.66,72,10.14,1026.04
457,230,link,10.1016/j.orgel.2018.05.050,PBDB-T,,,,-5.33,-3.53,-1.8,,IF-TN,-5.8,-3.93,-1.87,1.81,1:1,CB,2000,10,CN,2,100,80,5,PEDOT:PSS,-5.33,,PNDIT-F3N-Br,-4.18,5,4.54E-04,1.02E-05,,,,1.006,7.02,40.95,2.89,289.194
458,230,link,10.1016/j.orgel.2018.05.050,PBDB-T,,,,-5.33,-3.53,-1.8,,IDT-TN,-5.42,-4.03,-1.39,1.43,1:1,CB,2000,10,CN,2,100,80,5,PEDOT:PSS,-5.33,,PNDIT-F3N-Br,-4.18,5,8.55E-04,6.79E-05,,,,0.967,13.22,45.17,5.77,577.442
459,231,link,10.1021/acs.macromol.8b00683,PBDB-T,,,,-5.21,-3.41,-1.8,,IT-M,-5.58,-3.98,-1.6,,1:1,CB,,20,DIO,0.8,,120,15,PEDOT:PSS,,,PDINO,,5,1.08E-05,4.82E-04,,,,0.93,16.69,66.77,10.31,1036.38
460,232,link,10.1039/C8TC02701C,PBDB-T,,,,-5.2,-3,-2.2,,ITIC-Cl4,-5.5,-3.9,-1.6,1.48,1:1,o-DCB,1500,15,CN,0.5,,25,0,MoOx,,10,ZnO,,,,,,,,0.74,21.5,60,9.60,954.6
461,233,link,10.1016/j.dyepig.2018.05.050,PBDTS-TzBI,,,,-5.39,-3.52,-1.87,1.57,ITIC,-5.48,-3.83,-1.65,,1:1,CB,,20,_,0,100,130,,PEDOT:PSS,,,PFN-Br,,,6.45E-05,3.09E-04,,,,0.94,16.8,56.2,9.04,887.5104
462,233,link,10.1016/j.dyepig.2018.05.050,PBDTS-TzBI,,,,-5.39,-3.52,-1.87,1.57,ITIC-Th,-5.66,-3.93,-1.73,,1:1,CB,,20,_,0,100,130,,PEDOT:PSS,,,PFN-Br,,,1.27E-04,5.18E-04,,,,0.91,17.34,60.44,9.67,953.707
463,234,link,10.1016/j.dyepig.2018.03.061,PBDB-T,,,,-5.33,-2.92,-2.41,,NFBDT-Me,-5.4,-3.78,-1.62,1.58,1:0.6,CF,,9.6,_,0,,25,0,PEDOT:PSS,,,PDIN,,,2.07E-04,1.68E-04,,,,0.909,17.3,70,11.00,1100.799
464,234,link,10.1016/j.dyepig.2018.03.061,PBDB-T,,,,-5.33,-2.92,-2.41,,NFBDT-F,-5.43,-3.88,-1.55,1.5,1:1,CF,,,_,0,,25,0,PEDOT:PSS,,,PDIN,,,2.49E-04,1.33E-04,,,,0.793,19.28,69.5,10.62,1062.59
465,234,link,10.1016/j.dyepig.2018.03.061,PBDB-T,,,,-5.33,-2.92,-2.41,,NFBDT,-5.4,-3.83,-1.57,1.56,1:0.8,CF,,9,_,0,100,25,0,PEDOT:PSS,,,PDIN,,,3.68E-04,1.38E-04,,,,0.872,17.85,67.2,10.42,1045.98
466,235,link,10.1039/C8TA01739E,PBDB-T,,,,-5.33,-3.53,-1.8,,IT-DM,-5.47,-3.78,-1.69,,1.5:2,CB,,20,_,0,100,160,,PEDOT:PSS,,,PFN-Br,,,2.31E-04,4.01E-05,,,,0.95,15.95,68.7,10.41,1040.98
467,236,link,10.1021/acs.chemmater.8b02276,PBDB-T,,,,-5.33,-3.53,-1.8,,SN6IC,-5.38,-3.93,-1.45,1.39,1:1,CB,3000,20,DIO,0.3,100,25,0,PEDOT:PSS,,,C60-bissalt,,,,2.95E-04,,,,0.88,16.5,66,9.60,958.32
468,236,link,10.1021/acs.chemmater.8b02276,PBDB-T,,,,-5.33,-3.53,-1.8,,SN6IC-4F,-5.52,-4.11,-1.41,1.32,1:1,CB,3000,20,DIO,0.3,100,25,0,PEDOT:PSS,,,C60-bissalt,,,,5.00E-04,,,,0.78,23.2,73,13.20,1321.008
469,237,link,10.1021/acsenergylett.8b00366,PTB7-Th,,,,-5.02,-3.44,-1.58,,ITIC,-5.47,-3.76,-1.71,,1:2,CB,3000,25,_,0,,25,0,MoOx,,,ZnO,,,2.07E-02,2.43E-04,,,,0.825,14.4,66,7.80,784.08
470,237,link,10.1021/acsenergylett.8b00366,PTB7-Th,,,,-5.02,-3.44,-1.58,,IDTT-T,-5.51,-3.51,-2,2,1:2,CB,3000,25,_,0,57,25,0,MoOx,,,ZnO,,,5.19E-03,3.98E-03,,,,1.015,15.7,57,9.10,908.3235
471,238,link,10.1002/solr.201800120,PBDB-T,,,,-5.3,-3.4,-1.9,,IDT-TBA,-5.71,-3.93,-1.78,1.91,1:1,,2000,20,_,0,100,120,10,MoOx,,,ZnO,,,2.20E-04,5.00E-05,,,,1,11.2,57,6.40,638.4
472,238,link,10.1002/solr.201800120,PBDB-T,,,,-5.3,-3.4,-1.9,,IDDT-TBA,-5.91,-4,-1.91,1.78,1:1,,2000,20,_,0,100,120,,MoOx,,,ZnO,,,1.40E-04,4.30E-05,,,,1.03,11.6,61,7.30,728.828
473,239,link,10.1007/s11426-018-9252-9,PBDB-T,,,,-5.33,-3.53,-1.8,,IDT-IC,-5.78,-3.84,-1.94,1.72,1:1,DCB,1200,8,_,0,80,25,0,MoOx,,,ZnO,,,4.02E-05,7.33E-05,,,,0.83,10.54,49,4.69,428.6618
474,240,link,10.1002/solr.201800053,PBDB-T,,,,-5.33,-2.92,-2.41,,O-NTIC,-5.51,-3.67,-1.84,1.7,1:0.8,CB,,19.9,DIO,0.5,,25,0,PEDOT:PSS,,,PDINO,,,1.54E-04,8.27E-05,,,,0.978,13.31,69.9,9.10,909.901
475,240,link,10.1002/solr.201800053,PBDB-T,,,,-5.33,-2.92,-2.41,,O-NTNC,-5.54,-3.78,-1.76,1.64,1:0.8,CB,,19.9,DIO,0.8,,25,0,PEDOT:PSS,,,PDINO,,,2.55E-04,1.69E-04,,,,0.942,15.98,73.4,11.04,1104.9
476,241,link,10.1002/asia.201801669,PBDB-T,,,,-5.33,-2.92,-2.41,,BTTFIC,-5.56,-3.95,-1.61,1.58,1.5:1,o-DCB,,15,_,0,106,130,10,MoOx,,,ZnO,,,1.16E-04,1.22E-04,,,,0.935,17.74,54.3,9.00,900.669
477,241,link,10.1002/asia.201801669,PTB7-Th,,,,-5.2,-3.56,-1.64,,BTTFIC,-5.56,-3.95,-1.61,1.58,1:2,o-DCB,,30,_,0,101,130,10,MoOx,,,ZnO,,,6.70E-05,1.01E-04,,,,0.871,17.67,55,8.47,846.481
478,242,link,10.1007/s11426-017-9199-1,PBDB-TF,,,,-5.5,-3.61,-1.89,1.83,IT-4F,-5.69,-4.07,-1.62,,1:1,CB,,10,DIO,0.75,100,100,,MoOx,,,ZnO,,,9.76E-04,7.15E-04,,,,0.84,22.2,72.5,13.50,1351.98
479,243,link,10.1039/C7QM00585G,PBDB-T,,,,,,0,,NFTI,-5.46,-3.77,-1.69,1.57,1:0.9,o-DCB,,,DPE,3,,25,0,PEDOT:PSS,,,FPI,,,3.79E-04,1.11E-05,,,,0.898,16.22,57,8.34,830.237
480,244,link,10.1021/acs.chemmater.8b02222,FTAZ,1.89,60.1,113.589,-5.38,-3.17,-2.21,,F5IC,-5.82,-4.05,-1.77,1.64,1:1.5,CF,2800,12.5,DIO,0.25,,25,0,MoOx,,,ZnO/PFN-Br,,,3.00E-04,3.40E-05,,,,0.704,14.88,53.7,5.60,562.535
481,244,link,10.1021/acs.chemmater.8b02222,FTAZ,1.89,60.1,113.589,-5.38,-3.17,-2.21,,F7IC,-5.74,-4.01,-1.73,1.56,1:1.5,CF,2800,12.5,DIO,0.25,,25,0,MoOx,,,ZnO/PFN-Br,,,2.70E-04,8.30E-05,,,,0.742,18.43,59.7,8.20,816.401
482,244,link,10.1021/acs.chemmater.8b02222,FTAZ,1.89,60.1,113.589,-5.38,-3.17,-2.21,,F9IC,-5.52,-3.97,-1.55,1.49,1:1.5,CF,2800,12.5,DIO,0.25,,25,0,MoOx,,,ZnO/PFN-Br,,,2.10E-04,1.50E-04,,,,0.873,20.2,66.4,11.70,1170.94
483,245,link,10.1021/acsami.8b16554,PBDTTz-SBP,2.3,21,48.3,-5.46,-3.5,-1.96,1.96,ITIC,-5.6,-3.93,-1.67,,1:1,CB,,,_,0,125,25,0,PEDOT:PSS,,,PFN-Br,,,1.42E-04,3.90E-05,,,,0.914,18.52,71.43,12.09,1209.12
484,245,link,10.1021/acsami.8b16554,PBDTTz-BP,2.3,21,48.3,-4.8,-2.45,-2.35,1.96,ITIC,-5.6,-3.93,-1.67,,1:1,CB,,,_,0,125,25,0,PEDOT:PSS,,,PFN-Br,,,,,,,,0.832,17.96,61.56,9.20,919.874
485,246,link,10.1039/c8ee01546e,PJ1,1.58,87.8,138.724,-5.38,-3.38,-2,2,m-ITIC,-5.54,-3.95,-1.59,1.57,1:1.5,CF,,,DIO,0.5,110.9,130,5,PEDOT:PSS,,,PDINO,,,5.50E-05,2.00E-05,,,,1.031,11.1,56,6.41,640.8696
486,246,link,10.1039/c8ee01546e,PJ1,1.58,87.8,138.724,-5.38,-3.38,-2,2,IDIC,-5.67,-4.1,-1.57,1.69,1:1.5,CF,,,DIO,0.5,109.1,130,5,PEDOT:PSS,,,PDINO,,,6.90E-05,2.50E-05,,,,0.958,12,53.6,6.18,616.1856
487,246,link,10.1039/c8ee01546e,PJ2,1.44,80.1,115.344,-5.14,-3.33,-1.81,1.81,m-ITIC,-5.54,-3.95,-1.59,1.57,1:1.5,CF,,,DIO,0.5,112.6,130,5,PEDOT:PSS,,,PDINO,,,1.50E-04,8.70E-05,,,,0.988,16.8,62.3,10.34,1034.08
488,246,link,10.1039/c8ee01546e,PJ2,1.44,80.1,115.344,-5.14,-3.33,-1.81,1.81,IDIC,-5.67,-4.1,-1.57,1.69,1:1.5,CF,,,DIO,0.5,110.3,130,5,PEDOT:PSS,,,PDINO,,,2.00E-04,1.59E-04,,,,0.939,17,75.3,12.01,1202.01
489,246,link,10.1039/c8ee01546e,PJ3,1.56,79.2,123.552,-5.01,-3.26,-1.75,1.75,m-ITIC,-5.54,-3.95,-1.59,1.57,1:1.5,CF,,,DIO,0.5,117.8,130,5,PEDOT:PSS,,,PDINO,,,8.10E-05,4.90E-05,,,,0.96,12.7,63.5,7.76,774.192
490,246,link,10.1039/c8ee01546e,PJ3,1.56,79.2,123.552,-5.01,-3.26,-1.75,1.75,IDIC,-5.67,-4.1,-1.57,1.69,1:1.5,CF,,,DIO,0.5,114.5,130,5,PEDOT:PSS,,,PDINO,,,1.00E-04,6.40E-05,,,,0.908,12.8,69.8,8.11,811.244
491,247,link,10.1039/C7TA09837E,2D-PBTCl,1.59,41.37,66.16,-5.45,-3.6,-1.85,1.58,ITIC,-5.48,-3.83,-1.65,,1:1,CB,1000,8,DIO,0.25,100,25,0,MoOx,,,ZnO,,,4.90E-04,,,,,0.91,15.79,61.32,8.81,881.101
492,247,link,10.1039/C7TA09837E,2D-PBTCl2,1.91,41.86,80.3,-5.43,-3.63,-1.8,1.48,ITIC,-5.48,-3.83,-1.65,,1:1,CB,1000,8,DIO,0.25,90,25,0,MoOx,,,ZnO,,,1.10E-04,,,,,0.87,14.52,58.43,7.38,738.111
493,247,link,10.1039/C7TA09837E,PTB7-Th,,,,-5.38,-3.7,-1.68,,ITIC,-5.48,-3.83,-1.65,,1:1,CB,1000,8,DIO,0.25,90,25,0,MoOx,,,ZnO,,,,,,,,0.82,14.76,57.09,6.91,690.972
494,248,link,10.1021/acsaem.8b00506,PBClT,1.99,43.8,87.52,-5.47,-3.61,-1.86,1.64,ITIC,-5.48,-3.83,-1.65,,1:1,CB,1000,8,_,0,100,25,0,MoOx,,,ZnO,,,7.41E-05,,,,,1.01,13.95,60.05,8.46,846.074
495,249,link,10.1021/acsenergylett.8b00563,PBDB-T,,,,-5.36,-3.54,-1.82,,BDCPDT-IC,-5.41,-3.87,-1.54,1.53,1:1,CB,,12,DIO,1,,25,0,MoOx,,,ZnO,,,,,,,,0.86,16.56,65.52,9.33,933.11
496,249,link,10.1021/acsenergylett.8b00563,PBDB-T,,,,-5.36,-3.54,-1.82,,BDCPDT-FIC,-5.52,-4,-1.52,1.49,1:1,CB,,12,_,0,,25,0,MoOx,,,ZnO,,,,,,,,0.7,19.12,60.67,8.12,812.007
497,250,link,10.1016/j.orgel.2018.04.001,PBFTT,1.88,42.58,80.0504,-5.47,-3.56,-1.91,1.64,ITIC,-5.6,-3.85,-1.75,,1:1.5,CB,,20,_,0,,25,0,MoOx,,,ZnO,,,4.62E-04,1.55E-04,,,,0.94,16,60.5,9.10,909.92
498,251,link,10.1039/C7TA01746D,PBDB-O,2.24,25.3,56.672,-5.3,-2.82,-2.48,1.55,ITIC,-5.51,-3.78,-1.73,,1:1,CB,2500,20,DIO,0.5,100,160,,MoOx,,,ZnO,,,3.29E-05,6.55E-05,,,,0.846,11.8,43.3,4.35,432.255
499,251,link,10.1039/C7TA01746D,PBDB-T,3.25,16,52,-5.33,-2.92,-2.41,,ITIC,-5.51,-3.78,-1.73,,1:1,CB,2500,20,DIO,0.5,100,160,,MoOx,,,ZnO,,,2.32E-04,2.93E-04,,,,0.899,16.8,74.2,11.21,1120.66
500,252,link,10.1039/C7TA10763C,PBDB-T,,,,-5.31,-3.51,-1.8,,BDTIT-M,-5.4,-3.85,-1.55,1.55,1:1,CB,2500,20,DIO,0.75,100,100,5,PEDOT:PSS,,,PDIN,,,8.84E-04,3.00E-04,,,,0.903,17.56,71.3,11.31,1130.58
501,252,link,10.1039/C7TA10763C,PBDB-T,,,,-5.31,-3.51,-1.8,,BDTThIT-M,-5.35,-3.82,-1.53,1.53,1:1,CB,2500,20,DIO,0.75,100,100,5,PEDOT:PSS,,,PDIN,,,9.97E-04,3.93E-04,,,,0.942,18.03,71.4,12.12,1212.68
508,252,correct link,10.1002/solr.201700020,PBZ,2.18,,,-5.18,-3.22,-1.96,1.96,ITIC,-5.48,-3.83,-1.65,,1:1.25,CB,,9,_,0,100,25,0,MoOx,,10,ZnO,,,4.40E-04,1.64E-04,,,,0.79,17.2,59,8.00,801.692
509,252,correct link,10.1002/solr.201700020,PFBZ,2.3,,,-5.36,-3.42,-1.94,1.94,ITIC,-5.48,-3.83,-1.65,,1:1.25,CB,,9,_,0,125,25,0,MoOx,,10,ZnO,,,7.50E-04,4.48E-04,,,,0.89,18.8,62,10.40,1037.384
510,252,correct link,10.1002/adma.201601595,J51,,,,-5.26,-3.08,-2.18,1.91,ITIC,-5.48,-3.83,-1.65,1.59,1:2,CF,1800,18,_,0,,25,0,PEDOT:PSS,,,PDINO,,10,2.05E-04,8.60E-05,,,,0.84,14.08,61,7.03,721.4592
511,252,correct link,10.1021/jacs.6b01744,J60,2.22,23.9,53.058,-5.32,-3.08,-2.24,,ITIC,-5.53,-3.88,-1.65,,1:1,CF,2500,20,_,0,,25,0,PEDOT:PSS,,,PDINO,,10,,,,,,0.92,9.78,57.45,5.17,516.912
512,252,correct link,10.1021/jacs.6b01744,J61,2.29,34.2,78.318,-5.32,-3.08,-2.24,,ITIC,-5.53,-3.88,-1.65,,1:1,CF,2500,20,_,0,,25,0,PEDOT:PSS,,,PDINO,,10,1.59E-04,1.45E-04,,,,0.91,14.95,66.55,9.15,905.379
502,253,link,10.1016/j.dyepig.2018.11.056,PTB7,,,,-5.14,-3.51,-1.63,1.64,IEICO-4F,-5.44,-4.19,-1.25,,1:1.5,CB,,25,DIO,0.5,,25,0,PEDOT:PSS,,,PFN-Br,,,3.14E-04,4.53E-04,,,,0.54,14.73,28.92,2.30,230.035
503,253,link,10.1016/j.dyepig.2018.11.056,PTB7-Th,,,,-5.22,-3.64,-1.58,,IEICO-4F,-5.44,-4.19,-1.25,,1:1.5,CB,,25,CN,1.5,,25,0,PEDOT:PSS,,,PFN-Br,,,6.57E-04,4.22E-04,,,,0.72,23.21,69.41,11.60,1159.92
504,254,link,10.1016/j.dyepig.2017.02.022,PBO,4.04,57.9,233.916,-5.47,-3.67,-1.8,1.8,ITIC,-5.53,-3.88,-1.65,,1:2,DCB,,20,DIO,0.5,85,25,0,PEDOT:PSS,,,LiF,,,1.30E-05,4.20E-05,,,,0.92,14.3,54,7.10,710.424
505,255,link,10.1007/s40843-017-9084-x,PBDB-T,,,,-5.28,,-5.28,,TTIC-M,-5.3,-3.82,-1.48,1.44,1:1,CB,,20,_,0,,25,0,PEDOT:PSS,,,PDINO,,14,8.70E-05,8.60E-05,,,,0.83,19.07,63,9.85,997.1703
506,255,link,10.1007/s40843-017-9084-x,PBDB-T,,,,-5.28,,-5.28,,TTIC,-5.33,-3.87,-1.46,1.38,1:1,CB,,20,_,0,,25,0,PEDOT:PSS,,,PDINO,,14,1.63E-04,1.61E-04,,,,0.8,20.58,66,10.73,1086.624
507,255,link,10.1007/s40843-017-9084-x,PBDB-T,,,,-5.28,,-5.28,,TTIC-F,-5.34,-3.88,-1.46,1.35,1:1,CB,,20,_,0,,25,0,PEDOT:PSS,,,PDINO,,14,1.29E-04,1.38E-04,,,,0.71,21.26,63,9.38,950.9598
513,256,link,10.1002/solr.201700020,J71,,,,-5.36,-3.42,-1.94,,ITIC,-5.48,-3.83,-1.65,,1:1.25,CB,,22.5,_,0,175,25,0,MoOx,,10,ZnO,,,,,,,,0.96,14.81,63.63,9.03,904.666
514,257,link,10.1039/C7TA07882J,FTAZ,,,,-5.48,-3.47,-2.01,,ITIC,-5.64,-4.04,-1.6,,1:1.5,CF,5000,15,_,0,90,25,0,MoOx,,,ZnO,,,9.30E-05,5.90E-06,,,,0.911,16.71,58,8.77,882.923
515,257,link,10.1039/C7TA07882J,HTAZ,,,,-5.42,-3.44,-1.98,1.91,ITIC,-5.64,-4.04,-1.6,,1:1.5,CF,5000,15,_,0,90,25,0,MoOx,,,ZnO,,,1.90E-05,1.50E-06,,,,0.851,13.03,40.8,4.50,452.412
517,258,link,10.1007/s11426-017-9102-1,PTB7-Th,,,,,,0,,IFT-ECA,-5.62,-3.58,-2.04,2.28,1:1.5,DCB,,,CN,3,120,25,0,MoOx,,,ZnO,,,,,,,,0.76,0.2,23.6,0.03,3.5872
518,258,link,10.1007/s11426-017-9102-1,PTB7-Th,,,,,,0,,IFT-M,-5.83,-3.65,-2.18,2.15,1:1.5,DCB,,,CN,3,120,25,0,MoOx,,,ZnO,,,,,,,,0.76,0.8,24.9,0.15,15.1392
519,258,link,10.1007/s11426-017-9102-1,PTB7-Th,,,,,,0,,IFT-IC,-5.7,-3.87,-1.83,2.03,1:1.5,DCB,,,CN,3,120,25,0,MoOx,,,ZnO,,,,,,,,1.03,8,50.3,4.14,414.472
520,258,link,10.1007/s11426-017-9102-1,PTB7-Th,,,,,,0,,IFT-TH,-5.85,-3.67,-2.18,1.84,1:1.5,DCB,,,CN,3,120,25,0,MoOx,,,ZnO,,,,,,,,0.9,13.2,60.2,7.16,715.176
521,259,link,10.1039/C7QM00182G,PBDB-T,,,,,,0,,IT-M,,,0,,1:1,CB,,20,DIO,1,100,25,0,PEDOT:PSS,,,PFN-Br,,,2.09E-04,1.22E-04,,,,0.961,16.69,70,11.50,1122.74
522,260,link,10.1021/acs.chemmater.7b02853,PTB7-Th,,,,-5.2,-3.59,-1.61,,4TIC,-5.28,-3.87,-1.41,1.4,1:2,CB,,30,DIO,0.5,,25,0,PEDOT:PSS,,,C60-bissalt,,,,6.20E-04,,,,0.78,18.8,72,10.43,1055.808
523,260,link,10.1021/acs.chemmater.7b02853,PTB7-Th,,,,-5.2,-3.59,-1.61,,ITIC,-5.43,-3.81,-1.62,1.6,1:1.25,CB,,22.5,_,0,,25,0,PEDOT:PSS,,,C60-bissalt,,,,2.40E-04,,,,0.83,15.18,57,7.28,718.1658
524,261,link,10.1016/j.orgel.2017.02.029,TBF-BDD,1.83,32,65,-5.37,-3.65,-1.72,1.76,ITIC,,,0,,1:1,CF,2800,16,_,0,,110,10,PEDOT:PSS,,,PDINO,,,1.34E-04,1.18E-04,,,,0.85,14.94,56,7.13,711.144
525,261,link,10.1016/j.orgel.2017.02.029,TBF-BT,1.67,45,76,-5.4,-3.55,-1.85,1.75,ITIC,,,0,,1:1,CF,2800,16,_,0,,110,10,PEDOT:PSS,,,PDINO,,,8.20E-05,7.00E-05,,,,0.81,13.89,63,7.03,708.8067
526,262,link,10.1016/j.dyepig.2017.07.014,PBT,,,,-5.43,-3.65,-1.78,1.78,CzC6C8,-5.79,-3.79,-2,2,1:3,CB,,25,_,0,97,130,,MoOx,,,ZnO,,,1.23E-06,2.88E-06,,,,0.99,8.24,41,3.30,334.4616
527,262,link,10.1016/j.dyepig.2017.07.014,PBT,,,,-5.43,-3.65,-1.78,1.78,CZC8,-5.72,-3.74,-1.98,1.98,1:3,CB,,25,_,0,103,130,,MoOx,,,ZnO,,,2.02E-06,3.27E-06,,,,1.03,9,50,4.64,463.5
528,262,link,10.1016/j.dyepig.2017.07.014,PTB7-Th,,,,-5.23,-3.65,-1.58,,CZC8,-5.72,-3.74,-1.98,1.98,1:3,CB,,25,_,0,102,100,,MoOx,,,ZnO,,,4.73E-05,4.89E-05,,,,0.98,11.24,45,4.91,495.684
529,262,link,10.1016/j.dyepig.2017.07.014,PTFBDT,,,,-5.5,-3.69,-1.81,1.81,CZC8,-5.72,-3.74,-1.98,1.98,1:3,CB,,25,_,0,94,150,,MoOx,,,ZnO,,,1.88E-06,1.60E-06,,,,1.16,7.99,51,4.67,472.6884
530,263,link,10.1021/acsami.7b10275,PBDB-T,,,,-5.33,-3.53,-1.8,,IDTC,-5.29,-3.37,-1.92,1.51,1:1,CF,,,_,0,100,160,,PEDOT:PSS,,,PDINO,,,7.54E-05,1.48E-04,,,,0.917,16.56,61.61,9.35,935.58
531,263,link,10.1021/acsami.7b10275,PBDB-T,,,,-5.33,-3.53,-1.8,,IDTO,-5.11,-3.38,-1.73,1.53,1:1,CF,,,_,0,100,160,,PEDOT:PSS,,,PDINO,,,1.10E-04,1.78E-04,,,,0.943,16.25,65.41,10.02,1002.33
532,264,link,10.1016/j.scib.2017.08.027,PTB7-Th,,,,-5.2,-3.6,-1.6,1.58,BTA7,-5.56,-3.66,-1.9,1.78,1:2,CF,,15,DPE,3,,80,,PEDOT:PSS,,,Ca,,,,,,,,1.05,10.44,42,4.60,460.404
533,264,link,10.1016/j.scib.2017.08.027,PTB7-Th,,,,-5.2,-3.6,-1.6,1.58,BTA1,-5.51,-3.55,-1.96,1.85,1:2,CF,,15,DPE,3,,80,,PEDOT:PSS,,,Ca,,,,,,,,0.93,0.2,29,0.06,5.394
534,264,link,10.1016/j.scib.2017.08.027,PTB7-Th,,,,-5.2,-3.6,-1.6,1.58,BTA2,-5.43,-3.38,-2.05,2,1:2,CF,,15,DPE,3,,80,,PEDOT:PSS,,,Ca,,,,,,,,1.01,0.05,27,0.01,1.3635
535,265,link,10.1021/acsmacrolett.7b00097,P3HT,,,,-5,-3.1,-1.9,1.9,BTA1,-5.51,-3.55,-1.96,,1:0.6,CF,,15,CN,0.8,,100,10,PEDOT:PSS,,,Ca,,,1.80E-06,3.20E-05,,,,1.02,7.34,70,5.24,524.076
536,265,link,10.1021/acsmacrolett.7b00097,P3HT,,,,-5,-3.1,-1.9,1.9,BTA2,-5.43,-3.38,-2.05,2,0.6:1,CF,,15,DIO,0.8,,100,10,PEDOT:PSS,,,Ca,,,4.90E-04,3.40E-04,,,,1.22,6.15,60,4.50,450.18
537,266,link,10.1002/solr.201700166,P3HT,,,,-5,-3.1,-1.9,,BT2,-5.5,-3.53,-1.97,1.82,1.5:1,CF,,15,_,0,,150,,PEDOT:PSS,,,Ca,,,1.20E-04,4.60E-05,,,,0.97,7.59,67,4.93,493.2741
538,266,link,10.1002/solr.201700166,P3HT,,,,-5,-3.1,-1.9,,BT2b,-5.41,-3.56,-1.85,1.75,1:1,CF,,15,_,0,,150,,PEDOT:PSS,,,Ca,,,6.10E-05,8.40E-05,,,,0.92,10.02,66,6.08,608.4144
539,267,link,10.1016/j.dyepig.2017.05.026,PBDB-T,,,,-5.33,-2.92,-2.41,,CDTCN,-5.39,-3.8,-1.59,1.48,1:1,CB,1200,20,DIO,0.75,107,80,10,MoOx,,,ZnO,,,6.98E-05,1.87E-04,,,,0.96,11.26,57.58,6.23,622.417
540,268,link,10.1002/adma.201701308,PTB7-Th,,,,-5.2,-3.59,-1.61,,IHIC,-5.45,-3.93,-1.52,,1:1.5,DCB,,20,CN,1,100,25,0,MoOx,,,ZnO,,,6.80E-04,1.20E-03,,,,0.754,19.01,68.1,9.77,976.114
541,269,link,10.1021/acsphotonics.7b00618,PBDB-T,,,,-5.33,-2.92,-2.41,,ITIC,-5.96,-3.98,-1.98,,1:1,CB,,20,DIO,0.5,100,25,0,MoOx,,,ZnO,,,,,,,,0.88,13.8,59.8,7.40,726.2112
542,270,link,10.1039/C5TA05901A,PBDTTT-C-T,,,,-5.11,-3.25,-1.86,,IDT-2BM,-5.6,-4.8,-0.8,1.6,1.5:1,o-DCB,,30,CN,6,,25,0,PEDOT:PSS,,,Ca,,,2.50E-04,1.00E-05,,,,0.766,10.1,55.1,4.26,426.287
543,270,link,10.1039/C5TA05901A,PBDTTT-C-T,,,,-5.11,-3.25,-1.86,,IDTT-2BM,-5.5,-3.8,-1.7,1.54,1.5:1,o-DCB,,30,DIO,3,,25,0,PEDOT:PSS,,,Ca,,,4.10E-04,1.30E-05,,,,0.851,9.87,57.2,4.81,480.444
544,271,link,10.1016/j.nanoen.2016.10.008,PffQx-T,1.9,11,20.9,-5.36,-3.56,-1.8,1.73,ITIC,-5.48,-3.83,-1.65,1.57,1:1.5,CF,,20,_,0,100,170,10,PEDOT:PSS,,,PDINO,,,2.31E-04,1.73E-04,,,,0.87,16.33,59.6,8.47,846.743
545,271,link,10.1016/j.nanoen.2016.10.008,PffQx-PS,2,13,26,-5.4,-3.55,-1.85,1.81,ITIC,-5.48,-3.83,-1.65,1.57,1:1,CF,,20,DIO,0.1,100,90,10,PEDOT:PSS,,,PDINO,,,4.55E-05,2.41E-05,,,,0.97,14.96,62.9,9.12,912.754
551,273,link,10.1021/acsami.8b20493,PBDB-T,,,,-5.28,-3.48,-1.8,,ITIC,-5.51,-3.78,-1.73,,1:1,CB,1500,20,_,0,100,160,10,MoOx,,,ZnO,,,1.50E-04,5.10E-05,,,,0.831,14.5,71.1,8.60,856.719
554,274,link,10.1088/1361-6463/ab092b,PBDB-T,,,,,,0,,ITIC,,,0,,1:1,CB,1400,20,DIO,0.5,100,25,0,MoOx,,,ZnO,,,3.87E-04,4.45E-04,,,,0.87,19.11,64.15,10.53,1066.54
555,275,link,10.1117/12.2316,PTB7-Th,,,,,,0,,O-IDTBR,,,0,,,,,,,,,,,,,,,,,,,,,,0.992,17.7,57.3,10.10,1006.1
556,275,link,10.1117/12.2316,PTB7-Th,,,,,,0,,IEICO,,,0,,,,,,,,,,,,,,,,,,,,,,0.883,14.8,61.2,7.95,799.786
557,275,link,10.1117/12.2316,PTB7-Th,,,,,,0,,IEICO-4F,,,0,,,,,,,,,,,,,,,,,,,,,,0.707,26.6,66,12.40,1241.21
562,276,link,10.1039/C9TA03272J,J101,1.89,28.1,53.109,-5.3,-3.5,-1.8,1.53,ITIC,-5.56,-3.79,-1.77,,1:1,CF,,16,_,0,98,150,,PEDOT:PSS,,,PDINO,,,,,,,,0.951,17.7,73.65,12.47,1239.73
563,276,link,10.1039/C9TA03272J,J101,1.89,28.1,53.109,-5.3,-3.5,-1.8,1.53,ZITI,-5.53,-3.8,-1.73,,1:1,CF,,16,_,0,105,120,,PEDOT:PSS,,,PDINO,,,2.18E-04,1.27E-04,,,,0.937,21.25,72.48,14.43,1443.17
564,276,link,10.1039/C9TA03272J,J71,2,25.9,51.8,-5.27,-3.6,-1.67,,ZITI,-5.53,-3.8,-1.73,,1:1,CF,,16,_,0,98,25,0,PEDOT:PSS,,,PDINO,,,3.55E-04,4.52E-05,,,,0.912,20.23,69.49,12.82,1282.07
565,277,link,10.1021/acsaem.8b00012,PTB7-Th,,,,-5.22,-3.64,-1.58,,DICTF-C10,-5.67,-3.89,-1.78,1.76,2:3,o-DCB,,25,_,0,68,25,0,MoOx,,,ZnO,,,4.60E-05,2.30E-05,,,,0.865,19.255,50,6.93,832.779