File: ml_for_opvs/data/raw/OPV_Min/Machine Learning OPV Parameters - device_params.csv
 ,ref number from paper,reference link,DOI,Donor Molecule,HOMO_D (eV),LUMO_D (eV),Acceptor Molecule,HOMO_A (eV),LUMO_A (eV),D:A ratio (m/m),solvent,total solids conc. (mg/mL),solvent additive,solvent additive conc. (% v/v),active layer thickness (nm),temperature of thermal annealing (leave gap if not annealed),hole contact layer,electron contact layer,hole mobility blend (cm^2 V^-1 s^-1),electron mobility blend,effective mobility,Langevin prefactor,Voc vs ln(I) slope,Voc (V),Jsc (mA cm^-2),FF (%),PCE (%),calc_PCE
1,5,link,10.1002/aenm.201801214,PBDT-TT,-5.23,-3.34,6TIC,-5.45,-3.94,01:01.5,DCB,25,,,100,,PEDOT:PSS,C60-bissalt,6.06E-05,3.04E-05,,,,0.812,19.1,61,9.46,9.461
52,5,link,10.1002/aenm.201801214,PBDT-TT,-5.23,-3.34,ITIC,-5.6,-3.86,01:01.5,DCB,25,,,100,,PEDOT:PSS,C60-bissalt,9.28E-05,4.21E-05,,,,0.849,15.8,65,8.72,8.719
63,5,link,10.1002/aenm.201801214,PBDT-TT,-5.23,-3.34,IT-M,-5.58,-3.82,01:01.5,DCB,25,,,100,,PEDOT:PSS,C60-bissalt,1.43E-04,5.50E-05,,,,0.904,16.5,67,9.99,9.994
2,6,link,10.1016/j.scib.2018.05.025,J71,-5.44,-3.45,A201,-5.69,-3.93,1:01,CF,,,,,,PEDOT:PSS,Ca,9.56E-04,5.17E-04,,,,0.88,13.15,67.15,9.36,7.771
3,7,link,10.1002/aenm.201801582,J52,-5.13,-3.22,BTA13,-5.34,-3.62,1:01,CF,12,CN,0.5,105,170,PEDOT:PSS,Ca,5.86E-04,2.80E-04,,,1.173,1.05,12.7,58.66,7.82,7.822
4,7,link,10.1002/aenm.201801582,J52-F,-5.29,-3.38,BTA13,-5.34,-3.62,1:01,CF,12,CN,0.5,108,150,PEDOT:PSS,Ca,3.87E-04,6.15E-05,,,1.282,1.18,11.55,61.34,8.36,8.36
5,7,link,10.1002/aenm.201801582,J52-FS,-5.32,-3.39,BTA13,-5.34,-3.62,1:01,CF,12,CN,0.5,96,150,PEDOT:PSS,Ca,1.40E-04,1.73E-05,,,1.419,1.24,6.74,45.96,3.84,3.841
6,8,link,10.1039/C7EE00844A,J61,-5.22,-3.21,BT-IC,-5.32,-3.85,1:01,CF,16,,,130,120,PEDOT:PSS,PDINO,6.15E-04,4.95E-04,,,,0.87,16.35,67.1,9.56,9.545
7,8,link,10.1039/C7EE00844A,J71,-5.25,-3.18,BT-IC,-5.32,-3.85,01:01.5,CF,16,,,130,120,PEDOT:PSS,PDINO,3.53E-04,7.60E-04,,,,0.9,17.75,65.7,10.46,10.496
8,9,link,10.1002/adma.201604155,J51,-5.2,-3.01,IDIC,-5.69,-3.91,1:01,CF,12,,,100,,MoOx,ZnO,3.40E-05,2.50E-04,,,,0.796,12.24,66,6.94,6.43
9,9,link,10.1002/adma.201604155,PDBT-T1,-5.36,-3.43,IDIC,-5.69,-3.91,1:01,CF,12,DIO,0.25,100,,MoOx,ZnO,6.30E-05,5.20E-04,,,,0.834,16.98,73.2,10.37,10.366
10,9,link,10.1002/adma.201604155,PDCBT,-5.32,-3.3,IDIC,-5.69,-3.91,1:01,CF,12,,,100,,MoOx,ZnO,1.70E-05,1.20E-04,,,,0.814,11.31,64.1,6.28,5.901
11,9,link,10.1002/adma.201604155,PTB7-Th,-5.2,-3.56,IDIC,-5.69,-3.91,1:01,CF,12,,,100,,MoOx,ZnO,2.10E-05,1.70E-04,,,,0.806,10.9,56.1,5.24,4.929
12,9,link,10.1002/adma.201604155,PTFBDT-BZS,-5.43,-3.58,IDIC,-5.69,-3.91,1:01,CF,12,DIO,0.25,100,,MoOx,ZnO,6.20E-05,9.20E-04,,,,0.905,17.3,70.8,11.03,11.085
13,10,link,10.1039/C7TA07049G,J61,-5.32,-3.08,IDT-IC,-5.69,-3.88,1:01,CF,,,,120,160,PEDOT:PSS,PDINO,4.85E-04,1.60E-04,,,,0.88,13.7,57.3,6.95,6.908
81,10,link,10.1039/C7TA07049G,J61,-5.32,-3.08,SJ-IC,-5.61,-3.94,1:01,CF,,,,120,160,PEDOT:PSS,PDINO,3.10E-04,6.29E-04,,,,0.83,16.99,65.95,9.27,9.3
14,11,link,10.103/C8TA00764K,J71,-5.4,-3.24,IDTT-BH,-5.24,-3.86,01:01.4,CF,12,,,100,,PEDOT:PSS,PDINO,2.02E-04,1.63E-04,,,,0.9,17.77,69.1,11.05,11.051
15,11,link,10.103/C8TA00764K,PBDB-T,-5.33,-2.92,IDTT-BH,-5.24,-3.86,01:00.8,CF,9,,,90,100,PEDOT:PSS,PDINO,1.88E-04,8.88E-04,,,,0.85,16.86,69.2,9.92,9.917
16,11,link,10.103/C8TA00764K,PDCBT,-5.31,-3,IDTT-BH,-5.24,-3.86,01:01.2,CF,11,,,120,120,PEDOT:PSS,PDINO,1.82E-04,1.33E-04,,,,0.88,17.15,68.6,10.35,10.353
17,11,link,10.103/C8TA00764K,J71,-5.4,-3.24,IDTT-OBH,-5.41,-3.86,1:01,CF,10,,,100,,PEDOT:PSS,PDINO,1.52E-04,4.09E-05,,,,0.92,14.75,61,8.02,8.278
18,11,link,10.103/C8TA00764K,PBDB-T,-5.33,-2.92,IDTT-OBH,-5.41,-3.86,01:00.8,CF,9,,,90,110,PEDOT:PSS,PDINO,1.84E-04,9.78E-05,,,,0.87,17.46,72,10.93,10.937
19,11,link,10.103/C8TA00764K,PDCBT,-5.31,-3,IDTT-OBH,-5.41,-3.86,01:01.2,CF,11,,,100,120,PEDOT:PSS,PDINO,1.72E-04,8.18E-05,,,,0.91,13.97,64.8,8.24,8.238
20,12,link,10.1002/adma.201703080,J52,,,IEICO-4Cl,-5.56,-4.23,01:01.5,CB,10,DIO,1,110,150,PEDOT:PSS,PFN-Br,,,,,,0.7,23.8,60.7,10.1,10.113
21,12,link,10.1002/adma.201703080,PBDB-T,,,IEICO-4Cl,-5.56,-4.23,1:01,CB,10,DIO,1,100,150,PEDOT:PSS,PFN-Br,,,,,,0.744,20.8,62.5,9.67,9.672
22,12,link,10.1002/adma.201703080,PTB7-Th,,,IEICO-4Cl,-5.56,-4.23,01:01.5,CB,10,DIO,1,110,150,PEDOT:PSS,PFN-Br,,,,,,0.727,22.8,62,10.3,10.277
23,13,link,10.1021/acenergylett.8b00627,J52,,,IEICO-4F,-5.1098,-3.3772,01:01.3,CB,24,,,85,130,MoOx,ZnO,1.11E-04,1.35E-04,,,,0.704,20.48,56.9,8.2,8.204
24,13,link,10.1021/acenergylett.8b00627,J52,,,i-IEICO-4F,-5.0183,-3.3307,1:01,CB,24,,,85,130,MoOx,ZnO,2.59E-04,3.83E-04,,,,0.849,22.86,67.9,13.18,13.178
25,14,link,10.1002/adma.201706124,J71,-5.4,-3.24,ITCPTC,-5.54,-3.45,1:01,CF,,,,110,150,PEDOT:PSS,PDINO,7.13E-04,5.31E-04,,,,0.896,17.52,74.1,11.63,11.632
67,14,link,10.1002/adma.201706124,J71,-5.4,-3.24,MeIC,-5.57,-3.92,1:01,CF,,,,110,150,PEDOT:PSS,PDINO,8.38E-04,7.39E-04,,,,0.918,18.41,74.2,12.54,12.54
26,15,link,10.1007/s11426-016-0173-y,J40,-5.4,-2.9,ITIC,,,1:01,CF,16,,,,120,PEDOT:PSS,PDINO,3.70E-05,1.44E-04,,,,0.89,12.18,60.13,6.48,6.518
27,16,link,10.1002/adma.201601595,J50,-5.13,-3.16,ITIC,-5.48,-3.83,1:02,CF,18,,,,150,PEDOT:PSS,PDINO,6.30E-05,2.20E-05,,0.895,,0.71,12.93,53,4.8,4.866
28,16,link,10.1002/adma.201601595,J51,-5.26,-3.08,ITIC,-5.48,-3.83,1:02,CF,18,,,,150,PEDOT:PSS,PDINO,2.05E-04,8.60E-05,,0.967,,0.82,16.47,69,9.26,9.319
29,17,link,10.1021/jacs.6b01744,J52,-5.21,-2.99,ITIC,-5.48,-3.83,1:01,CF,20,,,,100,PEDOT:PSS,PDINO,,,,,,0.73,13.11,57.8,5.51,5.532
30,17,link,10.1021/jacs.6b01744,J60,-5.32,-3.08,ITIC,-5.48,-3.83,1:01,CF,20,,,,100,PEDOT:PSS,PDINO,,,,,,0.91,16.33,60.38,8.97,8.973
31,17,link,10.1021/jacs.6b01744,J61,-5.32,-3.08,ITIC,-5.48,-3.83,1:01,CF,20,,,,100,PEDOT:PSS,PDINO,4.96E-04,2.16E-04,,,,0.89,17.43,61.48,9.53,9.537
32,18,link,10.1021/jacs.6b09110,J61,,,ITIC,-5.54,-3.84,1:01,CF,20,,,120,130,PEDOT:PSS,PDINO,2.07E-04,1.05E-04,,,,0.898,17.97,65.49,10.57,10.568
70,18,link,10.1021/jacs.6b09110,J61,,,m-ITIC,-5.52,-3.82,1:01,CF,20,,,120,130,PEDOT:PSS,PDINO,1.54E-04,1.30E-04,,,,0.912,18.31,70.55,11.77,11.781
33,19,link,10.1007/s11426-017-9030-9,J61-F,-5.45,-2.91,ITIC,-5.51,-3.83,01:01.5,CF,18,,,100,170,PEDOT:PSS,PDINO,7.40E-05,1.10E-04,,,,0.95,13.12,66.1,8.24,8.239
34,20,link,10.1021/acs.macromol.8b01036,J62,-5.31,-3.08,ITIC,-5.48,-3.83,1.5:1,CF,18,,,263,,PEDOT:PSS,PDINO,1.23E-04,4.95E-04,,,,0.904,16.12,62.36,9.09,9.087
35,20,link,10.1021/acs.macromol.8b01036,J63,-5.28,-3.04,ITIC,-5.48,-3.83,1.5:1,CF,18,,,166.5,,PEDOT:PSS,PDINO,8.18E-05,3.37E-04,,,,0.882,15.72,53.11,7.38,7.364
36,20,link,10.1021/acs.macromol.8b01036,J64,-5.33,-3.09,ITIC,-5.48,-3.83,1.5:1,CF,18,,,321,,PEDOT:PSS,PDINO,6.54E-05,3.55E-04,,,,0.908,15.22,54.32,7.51,7.507
37,21,link,10.1002/aenm.201700746,J81,-5.43,-2.98,m-ITIC,-5.52,-3.82,1:01,CF,18,,,,160,PEDOT:PSS,PDINO,3.66E-04,4.06E-04,,,,0.95,15.27,73.08,10.6,10.601
76,21,link,10.1002/aenm.201700746,J81,-5.43,-2.98,m-ITIC,-5.52,-3.82,1:01,CF,18,,,,160,PEDOT:PSS,PDINO,4.08E-04,4.67E-04,,,,0.96,16.47,69.83,11.05,11.041
38,22,link,10.1002/aenm.201700834,PBDT(T)[2F]T,,,ITIC,-5.48,-3.83,5:05,CB,,,,65,160,MoOx,ZnO,3.00E-05,1.20E-05,,,,0.94,16.9,62,9.8,9.849
39,22,link,10.1002/aenm.201700834,PBDT[2F]T,,,ITIC,-5.48,-3.83,6:04,CB,,,,70,,MoOx,ZnO,1.50E-05,1.00E-05,,,,0.94,11.6,53,5.8,5.779
40,22,link,10.1002/aenm.201700834,PBDT[2H]T,,,ITIC,-5.48,-3.83,5:05,CB,,,,80,160,MoOx,ZnO,5.70E-06,2.20E-05,,,,0.79,7.6,41,2.5,2.462
119,22,link,10.1002/aenm.201700834,PBDT(2F)T,,,ITIC,,,,,,,,,,,,,,,,,0.79,7.6,41,2.5,2.462
120,22,link,10.1002/aenm.201700834,PBDT(2H)T,,,ITIC,,,,,,,,,,,,,,,,,0.96,10.3,53,5.4,5.241
121,22,link,10.1002/aenm.201700834,PBDT(T)(2F)T,,,ITIC,,,,,,,,,,,,,,,,,0.94,16.9,62,9.8,9.849
41,23,link,10.1002/adfm.201706517,PBDT-2TC,-5.43,-3.57,ITIC,-5.51,-3.84,1:01,CB,16,,,110,120,PEDOT:PSS,C60-bissalt,2.07E-04,2.92E-04,,,,0.93,15.3,65.7,9.35,9.348
47,23,link,10.1002/adfm.201706517,PBDT-S-2TC,-5.47,-3.58,ITIC,-5.51,-3.84,1:01,CB,16,,,110,120,PEDOT:PSS,C60-bissalt,2.11E-04,2.83E-04,,,,0.96,16.4,64.3,10.12,10.123
42,24,link,10.1021/acs.macromol.6b02733,PBDT-DTN,-5.37,-3.53,ITIC,,,4:06,CF,,DPE,4,90,,PEDOT:PSS,Ca,1.44E-03,2.61E-03,,,,0.92,13.8,65,8.3,8.252
43,25,link,10.1002/adfm.201706404,PBDT-FBT,-5.14,-3.35,ITIC,-5.48,-3.83,1:01,CB,20,DIO,0.5,99,,MoOx,ZnO,5.07E-05,1.47E-05,,,,0.82,13.73,63.8,7.15,7.183
44,25,link,10.1002/adfm.201706404,PBDTF-FBT,-5.34,-3.53,ITIC,-5.48,-3.83,1:01,CB,20,DIO,0.5,107,,MoOx,ZnO,2.29E-04,1.09E-04,,,,0.9,15.38,66.3,9.17,9.177
48,25,link,10.1002/adfm.201706404,PBDTS-FBT,-5.2,-3.4,ITIC,-5.48,-3.83,1:01,CB,20,DIO,0.5,104,,MoOx,ZnO,1.08E-04,3.65E-05,,,,0.89,14.63,65.9,8.58,8.581
49,25,link,10.1002/adfm.201706404,PBDTSF-FBT,-5.41,-3.6,ITIC,-5.48,-3.83,1:01,CB,20,DIO,0.5,109,,MoOx,ZnO,4.70E-04,2.76E-04,,,,1.03,17.09,66.3,11.66,11.671
45,26,link,10.1002/adfm.201701491,PBDT-NQx,-5.24,-3.42,ITIC,-5.48,-3.83,01:00.8,CB,20,DIO,2,110,,MoOx,ZnO,1.80E-04,5.60E-05,,,,0.87,16.21,64.6,9.11,9.11
46,26,link,10.1002/adfm.201701491,PBDTS-NQx,-5.31,-3.46,ITIC,-5.48,-3.83,01:00.8,CB,20,DIO,2,109,,MoOx,ZnO,2.50E-04,1.30E-04,,,,0.92,17.86,69.8,11.47,11.47
50,27,link,10.1002/adma.201703973,PBDTS-TDZ,-5.39,-2.8,ITIC,-5.48,-3.83,1:01,o-xylene,20,,,100,,PEDOT:PSS,MoOx,1.20E-03,7.20E-04,,,,1.1,17.78,65.4,12.8,12.791
51,27,link,10.1002/adma.201703973,PBDT-TDZ,-5.35,-2.78,ITIC,-5.48,-3.83,1:01,o-xylene,20,,,100,,PEDOT:PSS,MoOx,4.10E-04,2.30E-04,,,,1.02,15.91,58.1,9.43,9.429
53,28,link,10.1039/C7TA06476D,PBFZ-OP,-5.33,-3.01,ITIC,-5.6,-3.85,1:01,CF,16,,,,160,ZnO,MoOx,3.25E-04,2.62E-04,,,,0.91,18.7,61.8,10.5,10.517
54,29,link,10.1039/C7TA02075A,PSBZ,-5.37,-3.47,ITIC,-5.6,-3.85,1:01,CB,20,,,,140,ZnO,MoOx,1.70E-04,1.16E-03,,,,0.89,19,62,10.5,10.484
55,30,link,10.1039/C8TA05800H,J71,-5.4,-3.65,ITIC1,-5.48,-3.86,1:01,CF,14,,,100,100,PEDOT:PSS,ZrAcAc,3.10E-04,2.30E-04,,,,0.92,14.94,61.2,8.47,8.412
56,30,link,10.1039/C8TA05800H,J71,-5.4,-3.65,ITIC5,-5.48,-3.95,1:01,CF,14,,,100,100,PEDOT:PSS,ZrAcAc,6.30E-04,6.90E-04,,,,0.892,18.35,74.7,12.2,12.227
57,31,link,10.1002/adma.201800737,PBDT-ODZ,-5.68,-2.89,ITIC-Th,-5.78,-3.74,1:01,CB,20,,,100,,CuSCN,PFN-Br,2.20E-04,4.30E-04,,,,1.08,15.52,60.4,10.12,10.124
568,31,link,10.1002/adma.201800737,PBDT-ODZ,-5.45,-3.38,ITIC-Th,-5.62,-4.01,1:01,CB,20,CuI,4,100,,CuSCN,PFN-Br,1.10E-03,8.50E-04,,,,1.06,17.1,68.1,12.34,12.344
58,32,link,10.1002/adma.201700144,FTAZ,-5.38,-3.17,ITIC-Th,-5.66,-3.93,01:01.5,CF,12,DIO,0.25,120,,MoOx,ZnO,2.40E-02,4.50E-03,,,,0.915,15.84,61.26,8.88,8.879
59,32,link,10.1002/adma.201700144,FTAZ,-5.38,-3.17,ITIC-Th1,-5.74,-4.01,01:01.5,CF,12,DIO,0.25,120,,MoOx,ZnO,2.70E-02,7.60E-03,,,,0.849,19.33,73.73,12.1,12.1
60,33,link,10.1039/C7QM00547D,FTAZ,-5.38,-3.17,ITIC-Th2,-5.75,-4.07,01:01.5,CF,12.5,DIO,0.25,100,,MoOx,ZnO,1.30E-03,5.10E-04,,,,0.751,17.19,70.07,9.06,9.046
61,33,link,10.1039/C7QM00547D,FTAZ,-5.38,-3.17,ITIC-Th3,-5.67,-3.73,01:01.5,CF,12.5,DIO,0.25,100,,MoOx,ZnO,2.40E-03,7.20E-04,,,,0.962,16.34,68.33,10.7,10.741
62,34,link,10.1002/adma.201700437,J52,-5.21,-2.99,IT-M,-5.56,-3.98,1:01,CB,12,DIO,0.5,100,150,PEDOT:PSS,PFN-Br,1.93E-04,4.07E-03,,,,0.843,17.1,65.1,9.4,9.384
69,34,link,10.1002/adma.201700437,J52,,,m-ITIC,,,,,,,,,,,,,,,,,0.701,17.16,49.73,5.98,5.982
569,34,link,10.1002/adma.201700437,J52,-5.21,-2.99,IEICO,-5.32,-3.95,1:01,CB,12,DIO,0.5,100,150,PEDOT:PSS,PFN-Br,1.03E-04,6.38E-04,,,,0.848,15.1,51,6.5,6.53
64,35,link,10.1021/acs.chemmater.7b03928,J71,-5.4,-3.24,ITVffIC,-5.58,-4.04,01:01.2,CF,,CN,0.5,100,160,PEDOT:PSS,PDINO,2.06E-04,2.15E-04,,,,0.81,20.6,63.18,10.54,10.542
65,35,link,10.1021/acs.chemmater.7b03928,J71,-5.4,-3.24,ITVfIC,-5.56,-4.01,01:01.2,CF,,,,100,160,PEDOT:PSS,PDINO,3.62E-04,4.31E-04,,,,0.84,19.73,58.67,9.72,9.723
66,35,link,10.1021/acs.chemmater.7b03928,J71,-5.4,-3.24,ITVIC,-5.46,-3.97,01:01.2,CF,,,,100,160,PEDOT:PSS,PDINO,3.66E-04,2.82E-04,,,,0.89,14.47,57.64,7.34,7.423
68,36,link,10.1039/C8TA03453B,J71,-5.4,-3.24,MeIC2,-5.56,-3.97,1:01,CF,18,,,100,150,PEDOT:PSS,PDIN,4.62E-04,3.70E-04,,,,0.885,16.9,69.4,10.2,10.38
71,37,link,10.1002/aenm.201702324,J70,-5.37,-2.91,m-ITIC,-5.52,-3.82,01:01.5,CF,20,,,,150,PEDOT:PSS,PDINO,1.93E-04,8.40E-04,,,,0.92,18.09,69.82,11.62,11.62
72,37,link,10.1002/aenm.201702324,J71,-5.4,-3.24,m-ITIC,-5.52,-3.82,01:01.5,CF,20,,,,150,PEDOT:PSS,PDINO,1.09E-04,4.66E-04,,,,0.944,18.09,70.59,12.05,12.055
73,37,link,10.1002/aenm.201702324,J72,-5.42,-3.29,m-ITIC,-5.52,-3.82,01:01.5,CF,20,,,,150,PEDOT:PSS,PDINO,4.60E-05,3.98E-04,,,,0.962,16.35,65.03,10.23,10.228
74,37,link,10.1002/aenm.201702324,J73,-5.46,-2.92,m-ITIC,-5.52,-3.82,01:01.5,CF,20,,,,150,PEDOT:PSS,PDINO,3.80E-05,3.10E-04,,,,0.974,16.45,66.87,10.71,10.714
75,37,link,10.1002/aenm.201702324,J74,-5.56,-3.06,m-ITIC,-5.52,-3.82,01:01.5,CF,20,,,,150,PEDOT:PSS,PDINO,2.40E-05,4.05E-04,,,,0.99,15.89,61.18,9.63,9.624
77,38,link,10.1002/adma.201703344,J91,-5.5,-3.02,m-ITIC,-5.54,,01:01.5,CF,12,,,100,150,PEDOT:PSS,PDINO,1.02E-04,3.00E-04,,,,0.984,18.03,65.54,11.63,11.628
572,38,link,10.1002/adma.201703344,J52,-5.17,-2.99,m-ITIC,-5.54,,01:01.5,CF,12,,,100,150,PEDOT:PSS,PDINO,2.09E-05,2.38E-04,,,,0.701,17.16,49.73,5.98,5.982
78,39,link,10.1039/C7TA11339K,J71,-5.4,-3.24,m-MeIC,-5.54,-3.9,1:01,CF,,,,100,150,PEDOT:PSS,PDINO,2.06E-04,2.52E-04,,,,0.919,18.45,69.2,11.73,11.733
79,39,link,10.1039/C7TA11339K,PBDB-T,-5.33,-3.53,m-MeIC,-5.54,-3.9,1:01,CF,,,,100,150,PEDOT:PSS,PDINO,2.18E-04,2.69E-04,,,,0.843,18.16,69.7,10.68,10.67
80,39,link,10.1039/C7TA11339K,PTB7-Th,-5.2,-3.6,m-MeIC,-5.54,-3.9,1:01,CF,,CN,0.5,100,,PEDOT:PSS,PDINO,1.36E-04,1.85E-04,,,,0.796,16.52,61.7,8.12,8.114
82,40,link,10.1039/C8CC06198J,J61,-5.32,-3.38,TP21,-5.46,-3.61,1:01,CB,20,,,100,140,PEDOT:PSS,Ca,2.50E-04,7.40E-06,,,,1.05,10.92,51,5.81,5.848
83,41,link,10.1002/adma.201704713,FTAZ,-5.38,-3.17,IHIC2,-5.69,-3.86,01:01.5,CF,13.5,,,100,,MoOx,ZnO,1.80E-03,2.30E-05,,,,0.775,15.7,61.2,7.45,7.447
84,41,link,10.1002/adma.201704713,FTAZ,-5.38,-3.17,IOIC2,-5.41,-3.78,01:01.5,CF,13.5,DIO,0.2,100,,MoOx,ZnO,4.80E-03,6.80E-04,,,,0.9,19.7,69.3,12.3,12.287
85,42,link,10.1002/adma.201604241,PBQ-0F,-5.18,-3.48,ITIC,-5.53,-3.94,1:01,THF,12,isopropanol,5,100,160,MoOx,ZnO,7.80E-04,8.20E-04,,,,0.69,16.16,59.91,6.68,6.68
86,42,link,10.1002/adma.201604241,PBQ-QF,-5.34,-3.62,ITIC,-5.53,-3.94,1:01,THF,12,isopropanol,5,100,160,MoOx,ZnO,8.60E-04,8.30E-04,,,,0.83,17.16,62.49,8.9,8.9
87,42,link,10.1002/adma.201604241,PBQ-4F,-5.49,-3.7,ITIC,-5.53,-3.94,1:01,THF,12,isopropanol,5,100,160,MoOx,ZnO,1.00E-03,1.00E-03,,,,0.95,17.87,66.8,11.34,11.34
88,43,link,10.1002/adma.201704837,PBTA-TF,-5.36,-3.42,ITCC,-5.47,-3.76,1:01,CF,16,DIO,0.5,105,,PEDOT:PSS,PFN-Br,,,,,,1,15.54,67,10.4,10.412
89,43,link,10.1002/adma.201704837,PBTA-TF,-5.36,-3.42,IT-M,-5.58,-3.85,1:01,CF,16,DIO,0.5,98,,PEDOT:PSS,PFN-Br,,,,,,0.97,17.76,71,12.2,12.231
90,43,link,10.1002/adma.201704837,PBTA-TF,-5.36,-3.42,IT-4F,-5.66,-4.14,1:01,CF,16,DIO,0.5,96,,PEDOT:PSS,PFN-Br,,,,,,0.73,20.24,72,10.6,10.638
570,43,link,10.1002/adma.201704837,PBTA-TF,-5.36,-3.42,IT-M,-5.58,-3.85,1:01,THF,16,isopropanol,1,108,,PEDOT:PSS,PFN-Br,,,,,,0.96,18.37,67,12,11.816
571,43,link,10.1002/adma.201704837,PBTA-TF,-5.36,-3.42,IT-M,-5.58,-3.85,1:01,o-xylene,24,PN,0.5,112,,PEDOT:PSS,PFN-Br,,,,,,0.97,18.74,72,13.1,13.088
91,44,link,10.1002/adma.201600281,PBDB-T,-5.33,-2.92,ITIC,-5.51,-3.78,1:01,CB,20,DIO,0.5,100,160,MoOx,ZnO,2.10E-04,3.13E-04,,,,0.899,16.81,74.2,11.21,11.213
566,44,link,10.1002/adma.201600281,PBDB-T,-5.33,-2.92,ITIC,-5.96,-3.98,1:01,DCB,20,DIO,3,100,,MoOx,ZnO,,,,,,0.853,12.8,68.2,7.45,7.446
92,45,link,10.1021/jacs.7b02677,PBDB-T-SF,-5.4,-3.6,IT-4F,-5.66,-4.14,1:01,CB,25,DIO,0.5,100,,MoOx,ZnO,3.25E-04,4.32E-04,,,,0.88,20.88,71.3,13.1,13.101
567,45,link,10.1021/jacs.7b02677,PBDB-T,-5.28,-3.48,ITIC,-5.5,-3.89,1:01,CB,20,DIO,0.5,100,,MoOx,ZnO,2.10E-04,3.13E-04,,,,0.9,17.03,0.721,11.05,0.111
93,46,link,10.1021/acsami.5b10211,PCDTBT-C12,-5.23,-3.26,SM1,-5.93,-3.5,1:02,DCB,,,,52,90,PEDOT:PSS,LiF,3.00E-05,1.10E-05,,,,1.04,4.79,56,2.78,2.79
94,46,link,10.1021/acsami.5b10211,PCDTBT-C12,-5.23,-3.26,SM2,-5.98,-3.62,1:02,DCB,,,,60,90,PEDOT:PSS,LiF,1.10E-05,9.70E-07,,,,1.11,2.21,30,0.74,0.736
95,46,link,10.1021/acsami.5b10211,PCDTBT-C12,-5.23,-3.26,SM3,-5.95,-3.68,1:02,DCB,,,,66,90,PEDOT:PSS,LiF,2.70E-05,4.70E-07,,,,1.09,1.71,30,0.56,0.559
96,46,link,10.1021/acsami.5b10211,PCDTBT-C12,-5.23,-3.26,SM4,-5.8,-3.65,1:02,DCB,,,,57,90,PEDOT:PSS,LiF,1.00E-05,1.10E-09,,,,1.24,0.37,28,0.13,0.128
97,47,link,10.1002/adma.201606054,PTB7,-5.21,-3.36,SFBRCN,-5.93,-3.86,01:01.2,CB,22,DIO,0.75,100,,MoOx,ZnO,5.50E-05,1.20E-04,,,,0.85,13.85,60.7,7.34,7.146
98,47,link,10.1002/adma.201606054,PTB7-Th,-5.27,-3.55,SFBRCN,-5.93,-3.86,01:01.2,CB,22,DIO,0.75,100,,MoOx,ZnO,1.50E-04,2.20E-04,,,,0.9,17.24,64,9.9,9.93
99,48,link,10.1002/adma.201700254,PBDB-T,,,ITIC,-5.5,-3.9,1:01,CB,20,DIO,1,110,100,PEDOT:PSS,PFN-Br,,1.28E-04,,,,0.93,17,67,10.6,10.593
100,48,link,10.1002/adma.201700254,PBDB-T,,,ITCC,-5.47,-3.76,1:01,CB,20,DIO,1,110,100,PEDOT:PSS,PFN-Br,,6.74E-04,,,,1.01,15.9,71,11.4,11.402
101,49,link,10.1002/adma.201602642,PBDTTT-E-T,-5.09,,IEIC,-5.47,-3.9,01:01.5,CB,25,DIO,2,105,100,PEDOT:PSS,PFN-Br,,,,,,0.9,11.7,47,4.9,4.949
102,49,link,10.1002/adma.201602642,PBDTTT-E-T,-5.09,,IEICO,-5.32,-3.95,1:01,CB,20,DIO,2,95,100,PEDOT:PSS,PFN-Br,1.50E-03,4.60E-04,,,,0.82,17.7,58,8.4,8.418
419,50,link,10.1039/C9EE02531F,PBTT,,,IEICO,,,,,,,,,,,,,,,,,0.86,17.9,61.3,9.5,9.437
420,50,link,,PTB7-Th,,,IEICO,,,,,,,,,,,,,,,,,0.91,13.3,60.5,7.3,7.322
421,50,link,,PBDTTT-C-T,,,IEICO,,,,,,,,,,,,,,,,,0.89,12.3,59,6.5,6.459
422,50,link,,PBDTTT-E-T,,,IEICO,,,,,,,,,,,,,,,,,0.82,17.7,58,8.4,8.418
103,51,link,10.1002/adma.201704510,PBDB-T,-5.68,-3.84,NITI,-5.68,-3.84,1:01,CB,10,,,100,,PEDOT:PSS,PNDIT-F3N,7.90E-05,2.10E-05,,,,0.86,17.8,84,9.49,12.859
104,52,link,10.1002/adma.201701308,PTB7-Th,-5.2,-3.59,IHIC,-5.45,-3.93,01:01.5,DCB,20,CN,1,100,,MoOx,ZnO,6.80E-04,1.20E-03,,,,0.744,17.1,60.9,9.41,7.748
105,53,link,10.1039/c7cc03122j,P3HT,-5.2,-3.2,N3,-5.76,-3.97,01:01.2,o-DCB,,,,60,,PEDOT:PSS,Ca,,2.98E-03,,,,0.87,8.87,60,4.62,4.63
106,53,link,10.1039/c7cc03122j,P3HT,-5.2,-3.2,N4,-5.54,-3.67,01:01.2,o-DCB,,,,60,,PEDOT:PSS,Ca,,1.83E-04,,,,0.91,6.69,58,3.52,3.531
107,54,link,10.1039/C7CC06369E,P3HT,-5.2,-3.2,N5,-6.34,-3.73,01:01.2,o-DCB,,,,70,,PEDOT:PSS,Ca,,,,,,0.97,7.03,59,4.03,4.023
108,54,link,10.1039/C7CC06369E,P3HT,-5.2,-3.2,N6,-6.38,-3.98,01:01.2,o-DCB,,,,70,,PEDOT:PSS,Ca,,,,,,0.9,10.78,63,6.11,6.112
109,55,link,10.1020/jacs.7b13239,PTB7-Th,-5.2,-3.59,DTPC-IC,-5.21,-3.97,01:01.5,DCB,25,,,100,,PEDOT:PSS,C60-bissalt,4.60E-04,3.70E-05,,,,0.863,8.53,42.4,3.12,3.121
110,55,link,10.1020/jacs.7b13239,PTB7-Th,-5.2,-3.59,DTPC-DFIC,-5.31,-4.1,01:01.5,DCB,25,DIO,0.5,100,,PEDOT:PSS,C60-bissalt,5.00E-04,1.60E-04,,,,0.76,21.92,61.3,10.21,10.212
111,56,link,10.1002/adma.201604964,PBDB-T,-5.33,-2.92,DICTF,-5.67,-3.79,01:01.2,CB,22,DIO,0.3,,,PEDOT:PSS,PDIN,1.56E-05,1.49E-05,,,,0.93,10.3,59,5.93,5.652
112,56,link,10.1002/adma.201604964,PBDB-T,-5.33,-2.92,FDICTF,-5.43,-3.71,01:01.2,CB,22,DIO,0.3,,,PEDOT:PSS,PDIN,3.37E-05,2.40E-05,,,,0.94,15.81,66,10.06,9.809
113,57,link,10.1021/acsami.6b15717,P3HT,-5.08,-2.96,MPU1,-5.81,-3.99,1:01,CF,16,,,40,,,PFN,2.58E-05,8.15E-05,,,,0.64,4.22,42,1.14,1.134
114,57,link,10.1021/acsami.6b15717,P,-5.31,-3.33,MPU1,-5.81,-3.99,1:01,CF,16,,,40,,,PFN,5.11E-05,8.83E-05,,,,1.04,8.36,48,4.17,4.173
115,58,link,10.1021/jacs.7b00566,PBDB-T,-5.33,-2.92,IDT-BC6,-5.55,-3.83,1:01,o-DCB,8,,,100,,MoOx,ZnO,2.89E-06,1.38E-06,,,,0.92,5.63,44,2.3,2.279
116,58,link,10.1021/jacs.7b00566,PBDB-T,-5.33,-2.92,IDT-BOC6,-5.51,-3.78,1:01,o-DCB,8,DIO,1,100,,MoOx,ZnO,1.68E-04,1.98E-04,,,,1.01,17.52,54,9.6,9.555
117,59,link,10.1002/adma.201705969,PTB7-Th,-5.2,-3.59,ITIC3,-5.54,-3.9,01:01.5,CF,10,,,,,MoOx,ZnO,6.80E-04,2.70E-04,,,,0.763,16.8,63.1,8.09,8.088
118,59,link,10.1002/adma.201705969,PTB7-Th,-5.2,-3.59,FOIC,-5.36,-3.92,01:01.5,CF,10,,,80,,MoOx,ZnO,1.00E-03,5.10E-04,,,,0.743,24,67.1,12,11.965
122,60,link,,P3HT,-5,-3.1,ATT-3,-5.32,-3.4,,,,,,,,,,,,,,,0.927,10.93,62,6.26,6.282
123,61,link,,PBDB-T,-5.33,-2.92,IT-O1,-5.38,-3.33,1:01,CB,10,,,101,130,PEDOT:PSS,PFN-Br,1.20E-04,5.43E-05,,,,0.93,17.35,72,11.6,11.618
124,61,link,,PBDB-T,-5.33,-2.92,IT-O2,-5.37,-3.31,1:01,CB,10,,,94,130,PEDOT:PSS,PFN-Br,4.58E-04,8.40E-05,,,,0.97,15.34,62.6,9.3,9.315
125,61,link,,PBDB-T,-5.33,-2.92,IT-O3,-5.36,-3.31,1:01,CB,10,,,90,130,PEDOT:PSS,PFN-Br,1.50E-05,1.77E-06,,,,0.98,9.8,51.4,4.9,4.936
126,61,link,,PBDB-T,-5.33,-2.92,IT-O4,-5.35,-3.3,1:01,CB,10,,,89,130,PEDOT:PSS,PFN-Br,7.34E-05,1.71E-06,,,,0.95,9.16,47.9,4.2,4.168
127,62,link,,PTPDBDT,-5.6,-3.75,H-ITIC,-5.61,-4.02,1:01,CF,,n-hexane,10,40,,PEDOT:PSS,MoOx,1.10E-04,1.40E-04,,,,1.04,10.6,58,6.4,6.394
128,62,link,,PTPDBDT,-5.6,-3.75,F-ITIC,-5.65,-4.09,1:01,CF,,n-hexane,10,40,150,PEDOT:PSS,MoOx,5.70E-05,3.10E-04,,,,0.94,14.1,66,8.8,8.748
129,62,link,,PTPDBDT,-5.6,-3.75,Cl-ITIC,-5.7,-4.14,1:01,CF,,n-hexane,10,40,150,PEDOT:PSS,MoOx,7.80E-05,5.20E-04,,,,0.94,15.6,65,9.5,9.532
130,62,link,,PTPDBDT,-5.6,-3.75,Br-ITIC,-5.73,-4.2,1:01,CF,,n-hexane,10,40,150,PEDOT:PSS,MoOx,9.30E-05,5.10E-04,,,,0.93,15.4,66,9.4,9.453
131,62,link,,PTPDBDT,-5.6,-3.75,I-ITIC,-5.68,-4.14,1:01,CF,,n-hexane,10,40,150,PEDOT:PSS,MoOx,7.10E-05,4.10E-04,,,,0.93,14.5,65,8.9,8.765
132,63,link,,PBDB-T,-5.33,-2.92,NFBDT,-5.4,-3.83,01:00.8,CF,9,,,100,,PEDOT:PSS,PDIN,3.68E-04,1.38E-04,,,,0.863,17.35,66.3,10.15,9.927
133,64,link,10.1002/adma.201704904,PBDB-T,-5.33,-2.92,NCBDT,-5.36,-3.89,01:00.8,CF,9,,,100,,PEDOT:PSS,PDINO,3.92E-04,1.58E-04,,,,0.835,19.73,70.2,11.62,11.565
272,64,link,10.1002/adma.201704904,PBDB-T,-5.33,-2.92,NFBDT,-5.4,-3.83,01:00.8,CF,9,,,100,,PEDOT:PSS,PDINO,3.68E-04,1.38E-04,,,,0.868,17.85,67.2,10.42,10.412
134,65,link,,J71,-5.48,-3.6,ZITI-4F,-5.66,-3.81,1:01,CF,18,,,110,120,PEDOT:PSS,PNDIT-F3N,3.83E-04,1.86E-04,,,,0.85,21.3,72.76,13.18,13.173
135,66,link,10.1002/adma.201800403,J71,-5.48,-3.6,ZITI,-5.59,-3.74,,,,,,,,PEDOT:PSS,PNDIT-F3N,,,,,,0.88,21.57,73.1,13.85,13.876
136,67,link,10.1021/acsami.7b12612,PBDB-T,-5.33,-2.92,DTCCIC-C17,-5.46,-3.65,01:01.5,CB,,DIO,0.5,150,,MoOx,ZnO,,,,,,0.96,14.03,67,9.02,9.024
137,68,link,,P3HT,-5,-3.1,O-IDTBR,-5.56,-3.93,1:01,CB,24,,,75,130,MoOx,ZnO,,4.70E-06,,,,0.72,13.9,60,6.3,6.005
138,68,link,,P3HT,-5,-3.1,EH-IDTBR,-5.58,-3.9,1:01,CB,24,,,75,130,MoOx,ZnO,3.00E-04,5.80E-06,,,,0.76,12.1,62,6,5.702
139,69,link,,P3HT,-5,-3.1,FBR,-5.7,-3.57,1:01,CF:DCB (80:20),16,,,80,110,MoO3,ZnO,,2.60E-05,,,,0.82,7.95,63,4.11,4.107
140,70,link,,PBDB-T,-5.23,-3.18,IDTCN,-5.87,-3.92,1:01,CB,20,DIO,0.5,100,,MoOx,ZnO,1.38E-04,2.08E-04,,,,0.85,12.06,62.48,6.4,6.405
141,72,link,,PTzBI,,,ITIC,,,,,,,,,,,,,,,,,0.87,18.29,64.34,10.24,10.238
142,72,link,,P3HT,-5.2,-3.2,I-FN-I(BO),-6.07,-3.96,1:01,CB,20,,,95,,PEDOT:PSS,LiF,,,,,,0.9,9.3,47,3.8,3.934
552,72,link,,P3HT,-5.2,-3.2,I-FN-I(DT),-6.09,-3.97,1:01,CB,20,,,95,,PEDOT:PSS,LiF,,,,,,0.89,2.55,35,0.75,0.794
553,72,link,,P3HT,-5.2,-3.2,PI-FN-PI(DT),-6.02,-3.92,1:01,CB,20,,,95,,PEDOT:PSS,LiF,,,,,,0.91,4.95,48,2.2,2.162
143,73,link,,P3HT,-5.2,-3.2,I-FN-I(HD),-6.06,-3.98,1:01,CB,20,,,95,,PEDOT:PSS,LiF,,,,,,0.88,7.55,43,2.8,2.857
144,73,link,,P3HT,-5.2,-3.2,I-FCN-I(BO),-6.14,-4.21,1:01,CB,20,,,95,,PEDOT:PSS,LiF,,,,,,0.58,3.25,39,0.8,0.735
145,74,link,,FTAZ,-5.38,-3.17,INIC,-5.45,-3.88,01:01.5,CF,12.5,DIO,0.25,100,,MoOx,ZnO,1.20E-03,6.10E-05,,,,0.957,13.51,57.9,7.7,7.486
146,74,link,,FTAZ,-5.38,-3.17,INIC1,-5.54,-3.97,01:01.5,CF,12.5,DIO,0.25,100,,MoOx,ZnO,1.20E-03,1.00E-04,,,,0.929,16.63,64.3,10.1,9.934
147,74,link,,FTAZ,-5.38,-3.17,INIC2,-5.52,-3.98,01:01.5,CF,12.5,DIO,0.25,100,,MoOx,ZnO,1.20E-03,1.20E-04,,,,0.903,17.56,66.8,10.8,10.592
148,74,link,,FTAZ,-5.38,-3.17,INIC3,-5.52,-4.02,01:01.5,CF,12.5,DIO,0.25,100,,MoOx,ZnO,1.20E-03,1.70E-04,,,,0.857,19.44,67.4,11.5,11.229
149,75,link,,PTB7-Th,-5.2,-3.59,F6IC,-5.66,-4.02,01:01.7,CF,10,DPE,0.5,,,MoOx,ZnO,1.30E-04,4.50E-05,,,,0.611,18.07,64,7.1,7.066
150,75,link,,PTB7-Th,-5.2,-3.59,F8IC,-5.43,-4,01:01.7,CF,10,DPE,0.5,,,MoOx,ZnO,2.00E-04,1.60E-04,,,,0.64,25.12,67.6,10.9,10.868
151,75,link,,PTB7-Th,-5.2,-3.59,F10IC,-5.26,-3.96,01:01.7,CF,10,DPE,0.5,,,MoOx,ZnO,1.80E-04,1.00E-04,,,,0.73,20.83,66.8,10.2,10.158
152,76,link,,PBDTTT-C-T,-5.2,-3.34,DC-IDT2T,-5.43,-3.85,1.2:1,o-DCB,20,CF,15,70,,PEDOT:PSS,Ca,2.00E-03,1.50E-03,,,,0.9,8.33,52.3,3.93,3.921
153,77,link,,Pff4TBT-2DT,-5.34,-3.7,FBR,-5.83,-3.75,1:01,CB,20,,,120,,MoOx,ZnO,,,,,,1.12,11.5,61,7.8,7.857
154,77,link,,Pff4TBT-2DT,-5.34,-3.7,FTTB,-5.65,-3.62,1:01,CB,20,,,120,,MoOx,ZnO,,,,,,1.05,10.3,45,5,4.867
155,77,link,,Pff4TBT-2DT,-5.34,-3.7,IDFBR,-5.75,-3.7,1:01,CB,20,,,120,,MoOx,ZnO,,,,,,1.08,4.4,38,1.75,1.806
156,77,link,,Pff4TBT-2DT,-5.34,-3.7,IDTBR,-5.5,-3.9,1:01,CB,20,,,120,,MoOx,ZnO,,,,,,1.07,15,62,9.95,9.951
157,78,link,,J71,-5.4,-3.24,TTz1,-5.59,-3.66,1:02,CF,15,DIO,0.25,100,,MoOx,ZnO,4.24E-04,1.46E-04,,,,0.9,15.43,63.18,8.77,8.774
158,78,link,,J71,-5.4,-3.24,TTz2,-5.45,-3.5,1:02,CF,15,DIO,0.25,100,,MoOx,ZnO,2.92E-04,8.74E-05,,,,0.92,12.75,53.73,6.3,6.303
159,79,link,,PBDB-T,-5.23,-3.42,FTIC-C8C6,-5.62,-3.83,1:01,DCB ,8,DIO,0.5,200,,MoOx,PFN-Br,2.91E-05,1.94E-05,,,,0.92,16.1,67.46,9.91,9.992
160,79,link,,PBDB-T,-5.23,-3.42,FTIC-C6C6,-5.6,-3.81,1:01,DCB,8,DIO,0.3,200,,MoOx,PFN-Br,2.78E-05,1.39E-05,,,,0.91,16.03,63.17,9.18,9.215
161,79,link,,PBDB-T,-5.23,-3.42,FTIC-C6C8,-5.64,-3.81,1:01,DCB,8,DIO,0.5,200,,MoOx,PFN-Br,4.60E-05,3.81E-05,,,,0.92,18.55,64.72,11.12,11.045
162,80,link,,PTB7-Th,-5.2,-3.5,NDI-TR,-5.81,-3.95,,,,,,,,PEDOT:PSS,,1.30E-03,6.00E-05,,,,0.64,7.01,69,3.07,3.096
163,81,link,,PBDB-T,-5.23,-3.42,IXIC,-5.13,-3.78,1:01,CF,14,,,100,100,PEDOT:PSS,ZrAcAc,8.40E-04,4.10E-04,,,,0.82,20.9,65.4,11.3,11.208
164,81,link,,PBDB-T,-5.23,-3.42,IXIC-4Cl,-5.2,-3.95,1:01,CF,14,,,100,100,PEDOT:PSS,ZrAcAc,8.90E-04,4.90E-04,,,,0.69,22.9,71.2,11.2,11.25
165,82,link,,HFQx-T,-5.45,-3.5,ITTC,-5.49,-3.85,1:01,CF,18,,,100,130,PEDOT:PSS,PDINO,6.00E-05,8.10E-05,,,,0.88,16.49,71,10.4,10.303
166,83,link,,PBDB-T,-5.23,-3.42,ITIC-OE,-5.67,-4.03,1:01,CB,,DIO,0.5,103,120,PEDOT:PSS,PFN-Br,3.50E-04,1.20E-05,,,,0.85,14.8,67,8.4,8.429
167,83,link,,PBDB-T,-5.23,-3.42,ITIC,-5.68,-4.03,1:01,CB,,DIO,0.5,100,120,PEDOT:PSS,PFN-Br,3.20E-04,3.10E-04,,,,0.89,16.5,71,10.4,10.426
168,84,link,,PBDB-T,-5.23,-3.42,IT-OM-1,-5.5,-3.76,1:01,CB,20,,,95,150,MoOx,ZnO,1.78E-04,1.58E-06,,,,1.01,12.31,51,6.3,6.341
169,84,link,,PBDB-T,-5.23,-3.42,IT-OM-2,-5.49,-3.86,1:01,CB,20,,,105,150,MoOx,ZnO,1.13E-03,2.86E-04,,,,0.93,17.53,73,11.8,11.901
170,84,link,,PBDB-T,-5.23,-3.42,IT-OM-3,-5.52,-3.8,1:01,CB,20,,,105,150,MoOx,ZnO,6.43E-04,8.21E-05,,,,0.97,16.38,68,10.8,10.804
171,84,link,,PBDB-T,-5.23,-3.42,IT-OM-4,-5.49,-3.81,1:01,CB,20,,,105,150,MoOx,ZnO,4.53E-04,4.33E-05,,,,0.96,14.69,56,7.9,7.897
172,85,link,,PBDB-T,-5.33,-3.53,ITCT-DM,-5.48,-3.9,1:01,CB,20,DIO,0.5,100,120,PEDOT:PSS,,,,,,,0.904,16.32,65,10.56,9.59
173,85,link,,PBDB-T,-5.33,-3.53,ITCT,,,1:01,CB,20,,,100,120,PEDOT:PSS,,,,,,,0.85,17.88,72,11.27,10.943
174,86,link,,PBDB-T,-5.23,-3.18,ITCPTC-Th,-5.68,-4.03,1:01,CB,20,DIO,0.5,100,,MoOx,ZnO,8.76E-04,7.46E-04,,,,0.856,17.05,72.7,10.61,10.61
175,86,link,,PBDB-T,-5.23,-3.18,ITCPTC-Se,-5.65,-4,1:01,CB,20,DIO,0.5,100,,MoOx,ZnO,6.96E-04,4.95E-04,,,,0.869,15.2,68.3,9.02,9.022
176,87,link,,PTB7-Th,-5.22,-3.64,IEICO-4F,-5.44,-4.19,01:01.5,CB,37.5,DIO,,100,100,PEDOT:PSS,PFN-Br,2.11E-04,7.21E-05,,,,0.72,25.16,61.45,11.13,11.132
177,87,link,,PBDB-T,-5.33,-3.53,ITCC,-5.47,-3.76,1:01,CB,20,DIO,,100,100,PEDOT:PSS,PFN-Br,1.15E-04,2.52E-04,,,,0.98,16.14,71.32,11.28,11.281
178,88,link,,PBDB-T,,,MeIC,-5.57,-3.94,1:01,CB,20,DIO,0.5,100,120,PEDOT:PSS,PDIN,7.61E-04,3.63E-04,,,,0.896,18.07,74.3,12.03,12.03
179,89,link,,PTB7-Th,-5.31,-3.71,IFTIC,-5.42,-3.85,1:02,o-DCB,25,,,85,,MoOx,ZnO,8.24E-05,3.02E-05,,,,0.9,11.85,53.5,5.77,5.706
180,90,link,,PBDTTT-C-T,-5.11,-3.25,IDT-2BM,-5.6,-3.8,1.5:1,o-DCB,30,CN,6,,,PEDOT:PSS,Ca,8.30E-05,5.00E-07,,,,0.76,9.81,54.4,4.19,4.056
181,90,link,,PBDTTT-C-T,-5.11,-3.25,IDTT-2BM,-5.5,-3.8,1.5:1,o-DCB,30,DIO,3,,,PEDOT:PSS,Ca,1.70E-03,2.80E-06,,,,0.845,9.67,56.8,4.7,4.641
182,91,link,,PTB7-Th,-5.42,-3.81,IDT-T,-5.41,-3.96,01:01.3,CB,10,CN,1.5,,,MoOx,ZnO,3.10E-04,7.50E-05,,,,0.84,9.54,50.9,4.08,4.079
183,91,link,,PBDB-T,-5.21,-3.41,IDT-Tz,-5.62,-4.09,1:01,CB,10,CN,1.5,,,MoOx,ZnO,,,,,,0.88,13.67,70.8,8.52,8.517
184,92,link,,PTB7-Th,,,IDT-IC,,,,,,,,,,,,,,,,,0.83,9.53,40,3.2,3.164
192,92,link,,PTB7-Th,-5.22,-3.64,IDT-IC,-5.61,-3.88,01:01.5,o-DCB,,,,127,150,PEDOT:PSS,PDINO,,2.09E-05,,,,0.83,9.53,40,3.16,3.164
185,93,link,,PTB7-Th,-5.2,-3.59,IEIC,-5.42,-3.82,01:01.5,o-DCB,,,,,,PEDOT:PSS,PDIN,4.50E-04,1.00E-04,,,,0.97,13.55,48,6.31,6.309
186,94,link,,PTB7-Th,-5.22,-3.64,IDT-N,-5.73,-4.08,,CF,10,,,100,100,PEDOT:PSS,PNDIT-F3N-Br,,,,,,0.73,13.02,57.7,5.5,5.484
187,94,link,,PTB7-Th,-5.22,-3.64,IDT-T-N,-5.58,-4.06,,CF,10,CN,2,100,100,PEDOT:PSS,PNDIT-F3N-Br,,,,,,0.87,14.67,51.38,6.6,6.558
188,94,link,,PBDB-T,-5.33,-3.53,IDT-N,-5.73,-4.08,,CF,10,CN,0.25,100,100,PEDOT:PSS,PNDIT-F3N-Br,4.57E-04,2.87E-04,,,,0.79,15.88,71.91,9,9.021
189,94,link,,PBDB-T,-5.33,-3.53,IDT-T-N,-5.58,-4.06,,CF,10,CN,2,100,100,PEDOT:PSS,PNDIT-F3N-Br,1.43E-04,6.07E-05,,,,0.94,14.03,56.11,7.4,7.4
,95,link,,PBDB-T,-5.23,-3.42,IDT-EDOT,-5.43,-3.8,01:01.2,o-DCB,,DIO,0.2,100,,MoOx,ZnO,,,,,,0.86,21.34,62,11.32,11.378
191,95,link,,PBDB-T,-5.23,-3.42,IDT-PDOT,-5.39,-3.77,01:00.5,o-DCB,,,,100,,MoOx,ZnO,,,,,,0.85,5.26,48.9,2.18,2.186
193,96,link,,PTB7-Th,-5.2,-3.6,p-IDTIDT-IC,-5.42,-3.82,01:01.5,o-DCB,25,,,150,150,PEDOT:PSS,PDINO,,4.54E-05,,,,0.94,14.49,47.5,6.48,6.47
194,97,link,,PBDB-TF,-5.48,-3.64,IDT-C6,-5.59,-3.35,1:01,CF,16,DIO,0.5,110,100,PEDOT:PSS,PFN-Br,3.39E-04,3.85E-04,,,,0.96,17.5,74,12.5,12.432
195,97,link,,PBDB-TF,-5.48,-3.64,IDT-PhC6,-5.56,-3.32,1:01,CF,16,DIO,0.5,100,100,PEDOT:PSS,PFN-Br,2.06E-04,1.37E-05,,,,1,13,43,5.6,5.59
196,98,link,,PTB7-Th,,,IDT-2BM,-5.56,-3.65,01:01.5,CB,,DPE,2,,,MoOx,ZnO,2.87E-03,6.83E-05,,,,0.826,9.29,52,3.97,3.99
197,99,link,,FTAZ,,,IDCIC,-5.19,-3.72,,CF,23.3,CN:DIO (1:1),0.25,120,100,MoOx,ZnO,3.00E-04,1.50E-04,,,,0.87,21.98,71.03,13.58,13.583
198,100,link,,PBDB-T,-5.33,-2.92,FDNCTF,-5.42,-3.73,01:00.8,CB,19.8,,,120,,PEDOT:PSS,PDINO,1.77E-04,1.00E-04,,,,0.94,15.8,66,10,9.802
199,100,link,,PBDB-T,-5.33,-2.92,FDICTF,-5.43,-3.71,01:00.8,CB,19.8,,,120,,PEDOT:PSS,PDINO,3.37E-05,2.40E-05,,,,0.93,16.3,72.5,11.2,10.99
200,101,link,,PTB7-Th,-4.9,-3.32,DTNR,-5.22,-3.5,01:01.5,CB,20,CN,1,90,,MoOx,ZnO,1.84E-05,2.45E-05,,,,1.08,15.72,56,9.51,9.507
201,102,link,,PBDB-T,-5.33,-2.92,DTNIC6,-5.87,-3.92,,CB,18,,,100,,MoOx,TiO2:TOPD,1.30E-05,3.20E-06,,,,0.96,7.71,45.63,3.39,3.377
202,102,link,,PBDB-T,-5.33,-2.92,DTNIC8,-5.91,-3.93,,CB,18,,,100,,MoOx,TiO2:TOPD,3.10E-05,2.80E-05,,,,0.96,12.92,72.84,9.03,9.034
203,103,link,,PTB7-Th,-5.2,-3.56,DTCC-IC,-5.5,-3.87,1:01,CF,13,CN,1,,100,PEDOT:PSS,Ca,6.76E-04,1.52E-03,,,,0.95,11.23,56.2,6,5.996
204,104,link,,P3HT,-5.1,-3.1,DNIT-TT2T,-5.94,-3.75,1:01,o-DCB,,,,80,130,PEDOT:PSS,Ca,,,,,,0.88,3.28,43.47,1.25,1.255
205,105,link,,PTB7-Th,-4.9,-3.32,DICTF,-5.67,-3.79,01:01.4,CF,,,,,100,PEDOT:PSS,PDIN,3.82E-04,1.93E-04,,,,0.85,16.33,55,7.63,7.634
206,106,link,,P1,-5.1,-3.48,PY1,-5.27,-4,1:02,CF,18,DIO,3,,,PEDOT:PSS,PFN-Br,2.17E-04,1.06E-04,,,,0.83,10.53,56,4.89,4.894
207,106,link,,P1,-5.1,-3.48,DCI-2,-5.24,-4.05,1:02,CF,18,DIO,3,,,PEDOT:PSS,PFN-Br,1.14E-04,2.21E-04,,,,0.8,13.77,63,6.94,6.94
208,107,link,,PBDTTT-C-T,,,DC-IDT2F,-5.44,-3.88,2:01,o-DCB,20,,,,,MoOx,PEIE,1.20E-04,4.10E-04,,,,0.96,6.32,50.8,3.08,3.082
209,108,link,,PTB7-Th,-5.22,-3.64,IM-IDT,-5.44,-4,1:01,o-DCB,10,DPE,1,,100,PEDOT:PSS,Ca,3.48E-07,1.85E-07,,,,0.58,4.96,49.16,1.6,1.414
210,108,link,,PTB7-Th,-5.22,-3.64,TIM-IDT,-5.36,-4.01,1:01,o-DCB,10,,,,,PEDOT:PSS,Ca,1.52E-06,3.42E-07,,,,0.6,5.26,45.53,1.63,1.437
211,109,link,,PTB7-Th,-5.2,-3.61,COTIC-4F,-5.26,-4.16,01:01.5,CB,20,CN,2,73,,MoOx,ZnO,2.10E-04,8.50E-05,,,,0.56,20.3,56.3,6.4,6.4
212,109,link,,PTB7-Th,-5.2,-3.61,SiOTIC-4F,-5.28,-4.11,01:01.5,CF,20,CN,2,75,,MoOx,ZnO,3.30E-04,9.80E-05,,,,0.65,21.6,61.4,8.6,8.621
213,110,link,,P3HT,-4.77,-2.09,BTA100,-4.98,-2.81,1:01,CF,15,,,82,100,PEDOT:PSS,Ca,4.40E-08,6.85E-09,,,,1.34,1.65,47,1.04,1.039
214,110,link,,P3HT,-4.77,-2.09,BTA101,-5.05,-2.99,1:01,CF,15,,,82,120,PEDOT:PSS,Ca,2.28E-07,1.44E-07,,,,1.19,5.33,56,3.55,3.552
215,110,link,,P3HT,-4.77,-2.09,BTA103,-5.21,-3.18,1:02,CF,15,,,82,120,PEDOT:PSS,Ca,1.46E-06,3.52E-05,,,,0.94,8.56,66,5.31,5.311
216,111,link,,PTB7-Th,,,6TIC,-5.21,-3.83,01:01.5,CB,25,DIO,0.25,100,150,MoOx,ZnO,,7.00E-04,,,,0.831,20.11,66.16,11.07,11.056
217,112,link,,PTB7-Th,-5.39,-3.12,COi8DFIC,-5.5,-3.88,1:01,CB,18,DIO,1,124,,MoOx,ZnO,,,,,,0.68,26.12,68.2,12.16,12.113
218,113,link,,PTB7-Th,,,IDT-2BR,-5.52,-3.69,1:01,o-DCB:CF (4:1),15,CN,3,80,,PEDOT:PSS,Ca,6.70E-04,1.70E-04,,,,0.99,14,60,7.7,8.316
219,113,link,,PTB7-Th,,,IDT-2BR1,-5.37,-3.67,1:01,o-DCB:CF (4:1),15,CN,3,80,,PEDOT:PSS,Ca,1.50E-04,3.90E-04,,,,0.95,15.2,60,8.7,8.664
220,114,link,,PTB7-Th,-5.2,-3.6,ATT-2,-5.5,-3.9,01:01.8,CB,22.4,CN,2,,,MoOx,ZnO,5.10E-04,3.69E-04,,,,0.73,20.75,63,9.58,9.543
221,115,link,,PTB7-Th,-5.2,-3.63,T1,-5.42,-3.91,01:01.8,CB,20,,,100,,MoOx,ZnO,5.09E-04,2.26E-04,,,,0.72,20.95,65,9.82,9.805
222,115,link,,PTB7-Th,-5.2,-3.63,T2,-5.34,-3.96,01:01.8,CB,20,,,100,,MoOx,ZnO,5.36E-04,4.68E-04,,,,0.67,22.65,66,10.1,10.016
223,115,link,,PTB7-Th,-5.2,-3.63,T3,-5.31,-4,01:01.8,CB,20,,,100,,MoOx,ZnO,4.54E-04,7.88E-04,,,,0.61,22,70,9.43,9.394
224,116,link,,PTB7-Th,,,ATT-1,-5.5,-3.63,01:01.5,o-DCB,25,DIO,1,130,,PEDOT:PSS,PFN-Br,5.13E-04,2.40E-04,,,,0.87,16.48,70,10.07,10.036
225,117,link,,PDBT-T1,-5.36,-3.43,IC-C6IDT-IC,-5.69,-3.91,1:01,CF,12,,,90,,MoOx,ZnO,5.10E-05,2.90E-04,,,,0.89,15.05,65,8.71,8.706
226,118,link,,PBDTT-6ttTPD,-5.36,-3.51,ITIC,-5.8,-4.21,1:01,CF,12,DIO,0.5,100,,MoOx,ZnO,2.64E-04,1.03E-04,,,,0.942,15.63,67.8,9.98,9.983
227,118,link,,PMOT16,-5.52,-3.66,ITIC,-5.8,-4.21,1:01,CF,12,DIO,0.5,100,,MoOx,ZnO,1.09E-03,1.23E-04,,,,1.001,13,58.7,7.63,7.639
228,118,link,,PBDTT-6ttTPD,-5.36,-3.51,IDIC,-5.92,-4.31,1:01,CF,12,DIO,0.5,100,,MoOx,ZnO,5.03E-04,1.34E-04,,,,0.822,15.93,65.5,8.58,8.577
229,118,link,,PMOT16,-5.52,-3.66,IDIC,-5.92,-4.31,1:01,CF,12,DIO,0.5,100,,MoOx,ZnO,9.14E-04,3.23E-04,,,,0.925,16.13,67.3,10.04,10.041
230,119,link,,PTZP,-5.41,-3.4,IDIC,-5.64,-3.94,01:01.5,CB,18,DIO,0.75,100,,PEDOT:PSS,PFN-Br,4.51E-04,3.31E-04,,,,0.9,17.9,73.3,11.8,11.809
231,120,link,,PffBT2T-TT,-5.42,-3.52,O-IDTBR,-5.51,-3.55,01:01.5,"1,2,4-trimethylbenzene",17.5,,,,90,V2O5,ZnO,,,,,,1.08,14.32,67,10.4,10.362
232,121,link,,PffBT4T-2OD,,,EH-IDTBR,,,01:01.5,o-xylene,,,,100,100,MoOx,ZnO,1.00E-03,1.00E-05,,,,1.08,14.65,60,9.5,9.493
233,122,link,,PTB7-Th,-5.15,-3.44,IDT-BT-R,-5.3,-3.56,01:01.5,DCB,25,,,100,150,PEDOT:PSS,Ca,7.70E-03,1.20E-04,,,,1.02,13.6,59.1,8.2,8.198
234,122,link,,PTB7-Th,-5.15,-3.44,IDT-BT-R-CN,-5.38,-3.67,1:02,DCB,25,,,100,150,PEDOT:PSS,Ca,1.30E-03,8.70E-05,,,,0.88,12.4,50.1,5.5,5.467
235,123,link,,P3HT,-5,-3.59,I-IDTBTRh,-5.42,-3.68,01:00.8,CF,,,,,140,PEDOT:PSS,Ca,2.32E-06,1.15E-05,,,,0.86,8.81,71,5.38,5.379
236,124,link,,P3HT,-5,-3.1,BTA1,-5.51,-3.55,01:00.6,CF,15,CN,0.8,,100,PEDOT:PSS,Ca,1.10E-06,1.60E-05,,,,1.02,7.34,70,5.24,5.241
237,125,link,,P3HT,-5,-3.1,BTA2,-5.43,-3.38,0.6:1,CF,15,DIO,0.8,,100,PEDOT:PSS,Ca,4.90E-04,3.40E-04,,,,1.22,6.15,60,4.5,4.502
238,126,link,,J71,-5.4,-3.24,ITIC,-5.51,-3.84,1:01,CF,12,,,100,150,PEDOT:PSS,PDINO,2.08E-04,9.60E-05,,,,0.94,17.32,69.77,11.41,11.359
239,127,link,,P3HT,,,IDT-2BR,-5.52,-3.69,01:00.6,o-DCB,25,CN,3,80,,PEDOT:PSS,Ca,2.00E-04,2.60E-04,,,,0.84,8.91,68.1,5.12,5.097
240,128,link,,PBDTTT-EFT,-5.24,-3.66,IEICO-4F,-5.15,-3.41,01:01.5,CB,25,DIO,1,100,100,PEDOT:PSS,PFN-Br,,,,,,0.739,22.8,59.4,10,10.008
241,128,link,,J52,-5.21,-2.99,IEICO-4F,-5.15,-3.41,01:01.5,CB,25,DIO,1,100,100,PEDOT:PSS,PFN-Br,,,,,,0.734,21.9,58.5,9.4,9.404
242,129,link,,PffT2-FTAZ-2DT,-5.28,-3.37,IEIC,-5.45,-3.88,1:01,CB,6,,,80,90,V2O5,ZnO,,,,,,0.998,12.2,59,7.2,7.184
243,130,link,,PTB7-Th,,,IEIC1,-5.44,-3.87,10:06,DCB,,CN,3,,,PEDOT:PSS,Ca,1.20E-04,2.00E-04,,,,0.84,9.9,44,3.9,3.659
244,130,link,,PTB7-Th,,,IEIC2,-5.45,-3.87,10:12,DCB,,CN,1,,,PEDOT:PSS,Ca,2.70E-04,4.50E-04,,,,0.91,11.1,50,5.4,5.051
245,130,link,,PTB7-Th,,,IEIC3,-5.46,-3.86,10:15,DCB,,CN,2,,,PEDOT:PSS,Ca,4.50E-03,6.00E-03,,,,0.93,12.8,58,7.4,6.904
246,130,link,,PTB7-Th,,,IEIC,-5.48,-3.85,10:15,DCB,,,,,,PEDOT:PSS,Ca,2.00E-04,2.50E-04,,,,0.95,12.3,49,6,5.726
247,131,link,,PBDB-T,-5.33,-3.53,IT-M,-5.58,-3.98,1:01,CB,20,DIO,1,100,160,MoOx,ZnO,3.33E-04,1.10E-04,,,,0.94,17.44,73.5,12.05,12.049
248,131,link,,PBDB-T,-5.33,-3.53,IT-DM,-5.56,-3.93,1:01,CB,20,DIO,1,100,160,MoOx,ZnO,2.29E-04,4.70E-05,,,,0.97,16.48,70.6,11.29,11.286
249,132,link,,PBDB-ST,-5.37,-3.59,ITIC-SC6,-5.68,-3.91,1:01,DCB,8,CBA,0.1,80,110,MoOx,ZnO,2.43E-04,2.15E-04,,,,0.9,13.87,58,7.27,7.24
250,132,link,,PBDB-ST,-5.37,-3.59,ITIC-SC8,-5.7,-3.9,1:01,DCB,8,CBA,0.2,80,110,MoOx,ZnO,3.13E-04,2.93E-04,,,,0.9,14.43,60,7.79,7.792
251,132,link,,PBDB-ST,-5.37,-3.59,ITIC-SC2C6,-5.74,-3.86,1:01,DCB,8,CBA,0.3,80,110,MoOx,ZnO,5.62E-04,5.43E-04,,,,0.92,15.32,64,9.16,9.02
252,133,link,,PTB7-Th,-5.2,-3.56,ITIC-Th,-5.66,-3.93,01:01.3,o-DCB,20,CN,3,120,,MoOx ,ZnO,1.80E-04,3.90E-04,,,,0.8,15.93,68,8.7,8.666
253,133,link,,PDBT-T1,-5.36,-3.43,ITIC-Th,-5.66,-3.93,1:01,CF,12,CN,1,100,,MoOx ,ZnO,2.60E-04,3.70E-04,,,,0.88,16.24,67.1,9.6,9.589
254,134,link,,P2F-EH,-5.36,-3.04,ITIC,-5.64,-3.89,1:01,CF,11,,,100,100,PEDOT:PSS,PFNDI-Br,,,,,,0.983,12.4,50.48,6.13,6.153
255,134,link,,P2F-Ehp,-5.38,-3.06,ITIC,-5.64,-3.89,1:01,CF,11,,,100,100,PEDOT:PSS,PFNDI-Br,2.63E-05,1.42E-05,,,,1.017,13.02,54.79,7.28,7.255
256,134,link,,P2F-EO,-5.41,-3.08,ITIC,-5.64,-3.89,1:01,CF,11,,,100,100,PEDOT:PSS,PFNDI-Br,,,,,,1.013,12.65,52.53,6.73,6.731
257,134,link,,P2F-Ehp,-5.38,-3.06,IT-F,-5.66,-3.95,1:01,CF,11,,,100,100,PEDOT:PSS,PFNDI-Br,4.65E-05,6.40E-06,,,,0.959,16.91,61.94,10.06,10.045
258,134,link,,P2F-Ehp,-5.38,-3.06,IT-2F,-5.64,-4.05,1:01,CF,11,,,100,100,PEDOT:PSS,PFNDI-Br,4.76E-05,1.99E-05,,,,0.891,19.65,74.09,12.96,12.972
259,135,link,,PB3T,-5.39,-3.37,IT-M,-5.58,-3.96,60:40:00,Anisole,8,,,100,,PEDOT:PSS,PFN-Br,1.10E-04,6.50E-05,,,,1,18.9,63,11.9,11.907
260,136,link,,PBDB-T,,,IT-M,,-3.98,1:01,CB,20,DIO,1,115,100,MoOx,EDTA-ZnO,3.17E-04,2.96E-04,,,,0.953,17.34,73.2,12.1,12.096
261,137,link,,PBDB-T,-5.36,-3.54,ITIC,,,1:01,CB,20,DIO,0.5,,160,MoOx,ZnO,2.01E-04,1.42E-04,,,,0.86,18.12,64.29,10.02,10.018
262,138,link,,PBDB-T,-5.33,-3.53,ITIC,-5.61,-4.02,1:01,CB,,DIO,3,160,110,PEDOT:PSS,PFN-Br,,,,,,0.896,16.55,70.73,10.54,10.488
263,138,link,,PBDB-T,-5.33,-3.53,IT-M,-5.58,-3.98,1:01,CB,,DIO,3,160,110,PEDOT:PSS,PFN-Br,,,,,,0.95,16.37,74.06,11.52,11.517
264,139,link,,PBDB-T,,,DICTiF,-5.55,-3.62,01:01.4,CF,,DPE,0.5,,80,PEDOT:PSS,PDIN,8.45E-05,7.46E-05,,,,0.98,11.2,65,6.97,7.134
265,140,link,,PffBT4T-2OD,-5.3,-3.7,BAF-4CN,-5.7,-3.6,,o-DCB:CB (1:1),,DIO,0.130435,,,MoOx,ZnO,2.90E-04,4.90E-04,,,,0.769,15.52,70.7,8.4,8.438
266,141,link,,PBDB-T,,,DCF-2HT,-5.67,-3.72,01:01.4,CF,,PN,0.5,,,PEDOT:PSS,PDIN,1.34E-05,4.86E-05,,,,1.02,11.3,49.5,5.71,5.705
267,141,link,,PTB7-Th,,,DCF-2HT,-5.67,-3.72,,CF,,PN,0.5,,,PEDOT:PSS,PDIN,,,,,,0.96,12.43,40.04,4.83,4.778
268,142,link,,FTAZ,-5.38,-3.17,ITIC1,-5.48,-3.84,01:01.3,CF,11.5,,,90,,MoOx,ZnO,2.70E-03,2.00E-04,,,,0.921,16.45,56.4,8.54,8.545
269,142,link,,FTAZ,-5.38,-3.17,ITIC2,-5.43,-3.8,01:01.3,CF,11.5,,,90,110,MoOx,ZnO,1.40E-03,4.10E-04,,,,0.925,18.88,63,11,11.002
270,143,link,,PTB7-Th,-5.22,-3.64,BT-IC,-5.32,-3.85,01:01.5,CB:CF (9:1),25,,,130,150,MoOx,ZnO,5.10E-04,1.20E-04,,,,0.81,17.5,59.6,8.3,8.448
271,143,link,,PTB7-Th,-5.49,-4.09,BT-CIC,-5.32,-3.85,01:01.5,CB:CF (9:1),25,,,130,150,MoOx,ZnO,6.50E-04,2.10E-04,,,,0.7,22.5,71,11.2,11.183
273,144,link,,FTAZ,-5.38,-3.17,IDIC1,-5.51,-3.81,01:01.5,CF,12.5,,,100,,MoOx,ZnO,1.30E-04,2.00E-05,,,,0.896,13.6,58.5,7.13,7.129
274,144,link,,FTAZ,-5.38,-3.17,IHIC1,-5.47,-3.75,01:01.5,CF,12.5,,,100,,MoOx,ZnO,1.50E-04,2.60E-05,,,,0.95,14.3,67.9,9.21,9.224
275,145,link,,PBDB-T,-5.33,-2.92,NTIC,-5.58,-3.76,01:00.8,CF,9,,,100,,PEDOT:PSS,PDINO,1.91E-04,9.15E-05,,,,0.935,13.55,68.1,8.63,8.628
276,145,link,,PBDB-T,-5.33,-2.92,NTIC-Me,-5.53,-3.73,01:00.8,CF,9,,,100,,PEDOT:PSS,PDINO,7.29E-05,6.93E-05,,,,0.963,13.93,66.2,8.3,8.88
[...]
389,200,link,,PTQ10,-5.54,-2.98,IDIC,-5.74,-3.9,1:01,CF,,,,130,140,PEDOT:PSS,PDINO,5.04E-04,6.72E-04,,,,0.969,17.81,73.6,12.7,12.702
390,201,link,,PBDB-T,-5.33,-3.29,IDTIC,-5.85,-3.89,,CB,20,,,,,MoOx,ZnO/PFN-Br,2.56E-04,5.51E-05,,,,0.84,12.7,56.3,5.67,6.006
391,201,link,,PBDB-T,-5.33,-3.29,IDTTIC,-5.68,-3.84,,CB,20,,,,,MoOx,ZnO/PFN-Br,3.38E-04,1.15E-04,,,,0.919,17.3,70.4,11.2,11.193
392,202,link,,PTB7-Th,,,ITIC,,,01:01.5,CB,25,,,90,,MoOx,ZnO,,,,,,0.822,14,66.2,7.62,7.618
393,203,link,,P3HT,-4.87,-2.97,DTFBR,-5.54,-3.68,1:01,o-DCB,15,,,110,100,PEDOT:PSS,ZrAcAc,,,,,,0.71,8.15,62,3.68,3.588
394,204,link,,PBT1-C,-5.43,-3.36,TPT-2F,-5.84,-4.06,1:01,CF,,DIO,0.25,,100,MoOx,ZnO,3.51E-04,7.10E-05,,,,0.974,13.89,68.6,8.33,9.281
395,205,link,,PBDB-T,-5.33,-3.53,4TIC-4F,-5.6,-4.21,1:01,CB,20,,,100,130,PEDOT:PSS,C60-bissalt,,,,,,0.652,21.5,57,7.99,7.99
396,205,link,,PBDB-T,-5.33,-3.53,6TIC-4F,-5.45,-4.14,1:01,CB,20,,,100,,PEDOT:PSS,C60-bissalt,,,,,,0.723,23,67,11.14,11.141
397,206,link,,PBDB-T,,,ITBTR-C2,-5.3,-3.7,1:01,CB,20,DIO,0.3,,,MoOx,ZnO,3.21E-06,8.62E-05,,,,0.89,3.38,58.42,6.96,1.757
398,206,link,,PBDB-T,,,ITBTR-C4,-5.3,-3.71,1:01,CB,20,DIO,0.3,,,MoOx,ZnO,1.92E-05,2.36E-05,,,,0.9,14.75,54.15,7.33,7.188
399,206,link,,PBDB-T,,,ITBTR-C6,-5.3,-3.71,1:01,CB,20,DIO,0.3,,,MoOx,ZnO,5.97E-05,6.55E-05,,,,0.89,15.72,57.83,8.18,8.091
400,206,link,,PBDB-T,,,ITBTR-C8,-5.28,-3.7,1:01,CB,20,DIO,0.3,,,MoOx,ZnO,2.75E-05,3.43E-05,,,,0.9,14.74,58.47,7.85,7.757
401,207,link,,PBDB-T2Cl,-5.51,-3.57,IDIC-4H,-5.7,-3.87,1:01,CB,10,DIO,0.3,,,MoOx,ZnO,7.70E-05,3.80E-05,,,,0.98,10.32,45.3,4.57,4.581
402,207,link,,PBDB-T2Cl,-5.51,-3.57,IDIC-4F,-5.73,-3.93,1:01,CB,10,DIO,0.3,,,MoOx,ZnO,1.10E-04,6.00E-05,,,,0.88,13,61.91,7.1,7.083
403,207,link,,PBDB-T2Cl,-5.51,-3.57,IDIC-4Cl,-5.78,-4.02,1:01,CB,10,DIO,0.3,,,MoOx,ZnO,3.90E-04,2.70E-04,,,,0.83,16.21,68.69,9.24,9.242
404,208,link,,PBDB-T,-5.3,,IT-M,,,,CB,10,,,100,100,PEDOT:PSS,PFN-Br,2.69E-04,3.79E-04,,,,0.95,17.13,72,11.74,11.717
405,208,link,,PBDB-T-BO,-5.38,,IT-M,,,,THF,8,,,100,100,PEDOT:PSS,PFN-Br,1.70E-04,1.70E-04,,,,0.97,15.77,71,10.78,10.861
406,208,link,,PBDB-BzT,-5.36,,IT-M,,,,THF,8,,,100,100,PEDOT:PSS,PFN-Br,1.68E-04,1.22E-04,,,,0.96,17.97,70,12.1,12.076
407,209,link,,PTB7-Th,-5.15,-3.43,IDT-BT-R2,-5.3,-3.69,01:01.5,,25,,,100,150,PEDOT:PSS,Ca,1.22E-03,9.06E-05,,,,1.04,13.57,62.64,8.82,8.84
408,209,link,,PTB7-Th,-5.15,-3.43,IDT-BT-RF3,-5.34,-3.77,1:02,,24,,,100,150,PEDOT:PSS,Ca,1.80E-03,1.27E-04,,,,1.02,13.46,61.03,8.4,8.379
409,209,link,,PTB7-Th,-5.15,-3.43,IDT-BT-RO,-5.33,-3.73,01:01.5,,20,,,100,150,PEDOT:PSS,Ca,1.29E-03,9.13E-05,,,,0.89,14.47,58.88,7.59,7.583
410,209,link,,PTB7-Th,-5.15,-3.43,IDT-BT-RN,-5.22,-3.66,01:01.5,,20,,,100,150,PEDOT:PSS,Ca,1.36E-03,8.76E-05,,,,1.1,11.6,52.29,6.78,6.672
411,210,link,,PBDB-T,-5.33,-2.92,IDT-O-IC,-5.77,-3.79,01:01.2,o-DCB,,,,100,,MoOx,ZnO,2.28E-05,3.63E-05,,,,0.84,11.76,63,6.23,6.223
412,210,link,,PBDB-T,-5.33,-2.92,spiro-IDT-O-IC,-5.68,-3.79,01:01.8,o-DCB,,,,100,,MoOx,ZnO,3.66E-05,5.24E-05,,,,0.83,10.32,55,4.74,4.711
413,211,link,,PBDB-T,-5.33,-2.92,ICBF-O,-5.7,-3.75,,CB,20,,,100,,PEDOT:PSS,PDINO,,,,,,1.06,6.82,42.6,3.11,3.08
414,211,link,,PBDB-T,-5.33,-2.92,ICBF,-5.64,-3.8,,CB,20,,,100,,PEDOT:PSS,PDINO,,,,,,0.99,10.3,60.1,6.07,6.128
415,211,link,,PBDB-T,-5.33,-2.92,FICBF-O,-5.72,-3.85,,CB,20,,,100,,PEDOT:PSS,PDINO,,,,,,0.96,10.59,54.5,5.54,5.541
416,211,link,,PBDB-T,-5.33,-2.92,FICBF,-5.66,-3.88,,CB,20,,,100,,PEDOT:PSS,PDINO,,,,,,0.87,12.71,67,7.41,7.409
417,212,link,,PTB7-Th,-5.22,-3.64,BT-SFIC,-5.46,-4.04,01:02.5,,,PN,1.5,,,MoOx,ZnO,1.46E-03,3.08E-04,,,,0.77,18.46,67,9.12,9.524
418,212,link,,PTB7-Th,-5.22,-3.64,BT-FIC,-5.48,-4.1,01:01.5,,,PN,1.5,,,MoOx,ZnO,8.55E-04,2.04E-04,,,,0.73,21.28,65,9.8,10.097
423,213,link,,PBZ-TS,-5.11,-2.42,ITIC,,,1:01,,,,,,,PEDOT:PSS,PDINO,7.01E-04,1.46E-04,,,,0.93,16.73,52.1,8.08,8.106
424,214,link,,PBT1-EH,-5.43,-3.43,IDTCN,-5.91,-3.94,1:01,CF,14,,,110,100,PEDOT:PSS,ZrAcAc,1.20E-03,2.30E-03,,,,0.93,13.08,70.2,8.69,8.539
425,215,link,,PBDB-T,-5.49,-3.69,IDT-T,-5.57,-4.01,1:01,CB,15,,,90,,MoOx,ZnO,1.66E-04,8.19E-06,,,,0.952,11.21,59.62,6.36,6.363
426,215,link,,PBDB-T,-5.49,-3.69,IDT-3MT,-5.68,-4.16,1:01,CB,15,,,90,,MoOx,ZnO,2.07E-05,1.02E-05,,,,0.95,14.43,61.32,8.4,8.406
427,216,link,,PBDB-T,-5.33,-3.53,SiIDT-IC,-5.47,-3.78,1:01,CB,,,,,110,MoOx,PFN-Br,3.42E-04,1.02E-04,,,,0.92,13.53,65.56,8.16,8.161
428,216,link,,PBDB-T,-5.33,-3.53,IDIC,-5.53,-3.91,1:01,CB,,,,,110,MoOx,PFN-Br,,,,,,0.81,16.69,65.36,8.83,8.836
429,217,link,,PBDB-T,-5.33,-3.53,IDTBOR,-5.49,-3.93,1:02,CB,,,,100,130,MoOx,ZnO/PFN-Br,2.31E-04,3.08E-05,,,,0.89,15.98,54.67,7.74,7.775
430,217,link,,PBDB-T,-5.33,-3.53,IDTBSR,-5.41,-3.88,1:02,CB,,,,100,130,MoOx,ZnO/PFN-Br,2.20E-04,1.53E-06,,,,0.95,13.95,52.38,6.95,6.942
431,218,link,,PBDB-T,-5.36,-3.55,TTIC,-5.75,-4.35,01:01.5,,,DIO,0.15,85,125,MoOx,ZnO,9.24E-05,1.07E-04,,,,0.77,22.26,62,10.61,10.627
432,218,link,,PBDB-T,-5.36,-3.55,TTIC-M,-5.68,-4.24,01:01.5,,,DIO,0.15,86,175,MoOx,ZnO,1.25E-04,1.33E-04,,,,0.8,20.51,70,11.48,11.486
433,219,link,,J52,-5.39,-5.22,ITIC,-5.54,-4,01:01.5,CF,18,,,,,PEDOT:PSS,PDINO,6.60E-05,,,,,0.803,10.87,43.2,3.78,3.771
434,219,link,,J52-Cl,-5.53,-5.38,ITIC,-5.54,-4,01:01.5,CF,18,,,,,PEDOT:PSS,PDINO,9.50E-04,,,,,0.956,17.17,70.2,11.53,11.523
435,220,link,,PBDB-T,,,IDTT2F,-5.57,-4.03,1:01,DCB,,,,100,,MoOx,ZnO,1.03E-05,3.10E-06,,,,0.81,18.51,59,8.85,8.846
436,220,link,,PBDB-T,,,IDTOT2F,-5.54,-3.94,1:01,DCB,,,,97,,MoOx,ZnO,4.80E-05,4.00E-05,,,,0.85,20.87,72,12.79,12.772
437,221,link,,PBDB-T,,,IDTIC,,,,,,,,,,MoOx,ZnO,,,,,,0.89,10.94,61.9,6.05,6.027
438,222,link,,PBDB-T,-5.33,-3.53,ITIC,-5.66,-3.97,1:01,CB,,,,98,,PEDOT:PSS,CBL,5.10E-05,3.80E-04,,,,0.897,16.92,65.5,9.94,9.941
439,222,link,,PBDB-T,-5.33,-3.53,ITCT,-5.65,-4.02,1:01,CB,,,,98,,PEDOT:PSS,CBL,6.10E-05,5.10E-04,,,,0.85,17.88,72.3,10.99,10.988
440,223,link,,P3HT,-4.94,-3.06,IDT-RCN,-5.62,-3.75,01:00.8,CB,,CN,2,100,,PEDOT:PSS,Ca,,,,,,0.69,7.92,63,3.42,3.443
441,223,link,,P3HT,-4.94,-3.06,IDT-CA,-5.59,-3.64,01:00.8,CB,,CN,2,100,,PEDOT:PSS,Ca,,,,,,0.84,7.77,64,4.19,4.177
442,224,link,,PBDB-T,-5.33,-2.92,IDTO-T-4F,-5.49,-3.88,01:01.2,CF,13.2,DIO,0.3,110,,PEDOT:PSS,PDINO,2.62E-04,6.41E-05,,,,0.864,20.12,72.7,12.62,12.638
443,224,link,,PBDB-T,-5.33,-2.92,IDTO-Se-4F,-5.48,-3.9,01:01.1,CB,12,DIO,0.3,110,,PEDOT:PSS,PDINO,1.82E-04,4.45E-05,,,,0.831,18.55,69.2,10.67,10.667
444,224,link,,PBDB-T,-5.33,-2.92,IDTO-TT-4F,-5.39,-3.89,01:01.1,CF,12,DIO,0.3,110,,PEDOT:PSS,PDINO,1.07E-04,2.18E-05,,,,0.856,17.21,69.4,10.21,10.224
445,225,link,,PBDB-T,-5.33,-2.92,IDT2Se,-5.41,-3.87,1:01,CB,20,,,110,80,PEDOT:PSS,PDINO,1.52E-04,4.80E-05,,,,0.88,17.31,59.8,9.11,9.109
446,225,link,,PBDB-T,-5.33,-2.92,IDT2Se-4F,-5.51,-4,1:01,CB,20,,,110,80,PEDOT:PSS,PDINO,2.08E-04,1.64E-04,,,,0.79,21.35,65.4,11.03,11.031
447,226,link,,PBDT-Se-TAZ,-5.23,-3.45,ITIC,-5.48,-3.83,1:01,CF,16,DIO,0.3,100,,MoOx,ZnO,1.33E-03,8.70E-04,,,,0.81,18.63,66.7,10.07,10.065
448,226,link,,PBDTS-Se-TAZ,-5.29,-3.49,ITIC,-5.48,-3.83,1:01,CF,16,DIO,0.3,100,,MoOx,ZnO,2.47E-03,2.03E-03,,,,0.84,19.51,75.1,12.31,12.308
449,227,link,,PBDB-TF,-5.54,-3.65,IT-M,-5.58,-3.93,1:01,CB,20,DIO,1,90,100,PEDOT:PSS,PFN-Br,,,,,,1.02,15.79,65,10.5,10.469
450,227,link,,PBDB-TF,-5.54,-3.65,IT-4F,-5.67,-4.15,1:01,CB,20,DIO,1,90,100,PEDOT:PSS,PFN-Br,,,,,,0.87,20.38,77,13.7,13.653
451,228,link,,PBZ1,-5.27,-3.06,ITIC,-5.6,-3.85,1:01,Toluene,,,,,160,MoOx,ZnO,4.36E-04,2.98E-04,,,,0.74,15.7,49.8,5.8,5.786
452,228,link,,PBZ-m-CF3,-5.49,-3.22,ITIC,-5.6,-3.85,1:01,Toluene,,,,,160,MoOx,ZnO,5.08E-04,3.96E-04,,,,0.94,18.4,60.2,10.4,10.412
453,229,link,,PBDB-TF,-5.48,-3.64,HF-PCIC,-5.53,-3.83,01:01.2,CB,20,CN,1,100,110,MoOx,ZnO,1.68E-04,1.35E-04,,,,0.92,16.01,72.42,10.97,10.667
454,229,link,,PBDB-TF,-5.48,-3.64,HFO-PCIC,-5.5,-3.81,01:01.2,CB,20,CN,1,100,110,MoOx,ZnO,8.60E-05,2.50E-05,,,,0.93,12.62,70.99,8.36,8.332
455,229,link,,PBDB-TF,-5.48,-3.64,OF-PCIC,-5.66,-3.86,01:01.2,CB,20,CN,1,100,110,MoOx,ZnO,1.29E-04,3.20E-05,,,,0.91,13.76,73.37,9.09,9.187
456,229,link,,PBDB-TF,-5.48,-3.64,HF-PCIC,-5.53,-3.83,,,,,,,,MoOx,ZnO,,,,,,0.91,15.66,72,10.14,10.26
457,230,link,,PBDB-T,-5.33,-3.53,IF-TN,-5.8,-3.93,1:01,CB,10,CN,2,100,80,PEDOT:PSS,PNDIT-F3N-Br,4.54E-04,1.02E-05,,,,1.006,7.02,40.95,2.89,2.892
458,230,link,,PBDB-T,-5.33,-3.53,IDT-TN,-5.42,-4.03,1:01,CB,10,CN,2,100,80,PEDOT:PSS,PNDIT-F3N-Br,8.55E-04,6.79E-05,,,,0.967,13.22,45.17,5.77,5.774
459,231,link,,PBDB-T,-5.21,-3.41,IT-M,-5.58,-3.98,1:01,CB,20,DIO,0.8,,,PEDOT:PSS,PDINO,,,,,,0.93,16.69,66.77,10.31,10.364
460,232,link,,PBDB-T,-5.2,-3,ITIC-Cl4,-5.5,-3.9,1:01,o-DCB,15,CN,0.5,,,MoOx,ZnO,,,,,,0.74,21.5,60,9.6,9.546
461,233,link,,PBDTS-TzBI,-5.39,-3.52,ITIC,-5.48,-3.83,1:01,CB,,,,100,130,PEDOT:PSS,PFN-Br,6.45E-05,3.09E-04,,,,0.94,16.8,56.2,9.04,8.875
462,233,link,,PBDTS-TzBI,-5.39,-3.52,ITIC-Th,-5.66,-3.93,1:01,CB,,,,100,130,PEDOT:PSS,PFN-Br,1.27E-04,5.18E-04,,,,0.91,17.34,60.44,9.67,9.537
463,234,link,,PBDB-T,-5.33,-2.92,NFBDT-Me,-5.4,-3.78,01:00.6,CF,,,,,,PEDOT:PSS,PDIN,2.07E-04,1.68E-04,,,,0.909,17.3,70,11,11.008
464,234,link,,PBDB-T,-5.33,-2.92,NFBDT-F,-5.43,-3.88,1:01,CF,,,,,,PEDOT:PSS,PDIN,2.49E-04,1.33E-04,,,,0.793,19.28,69.5,10.62,10.626
465,234,link,,PBDB-T,-5.33,-2.92,NFBDT,-5.4,-3.83,,CF,,,,,,PEDOT:PSS,PDIN,,,,,,0.872,17.85,67.2,10.42,10.46
466,235,link,,PBDB-T,-5.33,-3.53,IT-DM,-5.47,-3.78,1.5:2,CB,20,,,100,160,PEDOT:PSS,PFN-Br,2.31E-04,4.01E-05,,,,0.95,15.95,68.7,10.41,10.41
467,236,link,,PBDB-T,-5.33,-3.53,SN6IC,-5.38,-3.93,1:01,CB,20,DIO,0.3,100,,PEDOT:PSS,C60-bissalt,,2.95E-04,,,,0.88,16.5,66,9.6,9.583
468,236,link,,PBDB-T,-5.33,-3.53,SN6IC-4F,-5.52,-4.11,1:01,CB,20,DIO,0.3,100,,PEDOT:PSS,C60-bissalt,,5.00E-04,,,,0.78,23.2,73,13.2,13.21
469,237,link,,PTB7-Th,-5.02,-3.44,ITIC,-5.47,-3.76,1:02,CB,25,,,,,MoOx,ZnO,2.07E-02,2.43E-04,,,,0.825,14.4,66,7.8,7.841
470,237,link,,PTB7-Th,-5.02,-3.44,IDTT-T,-5.51,-3.51,1:02,CB,25,,,57,,MoOx,ZnO,5.19E-03,3.98E-03,,,,1.015,15.7,57,9.1,9.083
471,238,link,,PBDB-T,-5.3,-3.4,IDT-TBA,-5.71,-3.93,1:01,,20,,,100,120,MoOx,ZnO,2.20E-04,5.00E-05,,,,1,11.2,57,6.4,6.384
472,238,link,,PBDB-T,-5.3,-3.4,IDDT-TBA,-5.91,-4,1:01,,20,,,100,120,MoOx,ZnO,1.40E-04,4.30E-05,,,,1.03,11.6,61,7.3,7.288
473,239,link,,PBDB-T,-5.33,-3.53,IDT-IC,-5.78,-3.84,1:01,DCB,8,,,80,,MoOx,ZnO,4.02E-05,7.33E-05,,,,0.83,10.54,49,4.69,4.287
474,240,link,,PBDB-T,-5.33,-2.92,O-NTIC,-5.51,-3.67,01:00.8,CB,,DIO,0.5,,,PEDOT:PSS,PDINO,1.54E-04,8.27E-05,,,,0.978,13.31,69.9,9.1,9.099
475,240,link,,PBDB-T,-5.33,-2.92,O-NTNC,-5.54,-3.78,01:00.8,CB,,DIO,0.8,,,PEDOT:PSS,PDINO,2.55E-04,1.69E-04,,,,0.942,15.98,73.4,11.04,11.049
476,241,link,,PBDB-T,,,BTTFIC,-5.56,-3.95,1.5:1,o-DCB,,,,106,130,MoOx,ZnO,1.16E-04,1.22E-04,,,,0.935,17.74,54.3,9,9.007
477,241,link,,PTB7-Th,,,BTTFIC,-5.56,-3.95,1:02,o-DCB,,,,101,130,MoOx,ZnO,6.70E-05,1.01E-04,,,,0.871,17.67,55,8.47,8.465
478,242,link,,PM6,-5.5,-3.61,IT-4F,-5.69,-4.07,1:01,CB,10,DIO,0.75,100,100,MoOx,ZnO,9.76E-04,7.15E-04,,,,0.84,22.2,72.5,13.5,13.52
479,243,link,,PBDB-T,,,NFTI,-5.46,-3.77,01:00.9,o-DCB,,F4-TCNQ,0.01,,,PEDOT:PSS,FPI,4.90E-04,4.17E-05,,,,0.902,17.82,56,9.02,9.001
480,244,link,,FTAZ,-5.38,-3.17,F5IC,-5.82,-4.05,01:01.5,CF,,DIO,0.25,,,MoOx,ZnO/PFN-Br,3.00E-04,3.40E-05,,,,0.704,14.88,53.7,5.6,5.625
481,244,link,,FTAZ,-5.38,-3.17,F7IC,-5.74,-4.01,01:01.5,CF,,DIO,0.25,,,MoOx,ZnO/PFN-Br,2.70E-04,8.30E-05,,,,0.742,18.43,59.7,8.2,8.164
482,244,link,,FTAZ,-5.38,-3.17,F9IC,-5.52,-3.97,01:01.5,CF,,DIO,0.25,,,MoOx,ZnO/PFN-Br,2.10E-04,1.50E-04,,,,0.873,20.2,66.4,11.7,11.709
483,245,link,,PBDTTz-SBP,-5.46,-3.5,ITIC,-5.6,-3.93,1:01,CB,,,,125,,PEDOT:PSS,PFN-Br,1.42E-04,3.90E-05,,,,0.914,18.52,71.43,12.09,12.091
484,245,link,,PBDTTz-BP,,,ITIC,-5.6,-3.93,1:01,CB,,,,125,,PEDOT:PSS,PFN-Br,,,,,,0.832,17.96,61.56,9.2,9.199
485,246,link,,PJ1,-5.38,-3.38,m-ITIC,-5.54,-3.95,01:01.5,CF,,DIO,0.5,110.9,130,PEDOT:PSS,PDINO,,,,,,1.031,11.1,56,6.41,6.409
486,246,link,,PJ1,-5.38,-3.38,IDIC,-5.67,-4.1,01:01.5,CF,,DIO,0.5,109.1,130,PEDOT:PSS,PDINO,,,,,,0.958,12,53.6,6.18,6.162
487,246,link,,PJ2,-5.14,-3.33,m-ITIC,-5.54,-3.95,01:01.5,CF,,DIO,0.5,112.6,130,PEDOT:PSS,PDINO,,,,,,0.988,16.8,62.3,10.34,10.341
488,246,link,,PJ2,-5.14,-3.33,IDIC,-5.67,-4.1,01:01.5,CF,,DIO,0.5,110.3,130,PEDOT:PSS,PDINO,,,,,,0.939,17,75.3,12.01,12.02
489,246,link,,PJ3,-5.01,-3.26,m-ITIC,-5.54,-3.95,01:01.5,CF,,DIO,0.5,117.8,130,PEDOT:PSS,PDINO,,,,,,0.96,12.7,63.5,7.76,7.742
490,246,link,,PJ3,-5.01,-3.26,IDIC,-5.67,-4.1,01:01.5,CF,,DIO,0.5,114.5,130,PEDOT:PSS,PDINO,,,,,,0.908,12.8,69.8,8.11,8.112
491,247,link,,2D-PBTCl,-5.45,-3.6,ITIC,-5.48,-3.83,1:01,CB,8,DIO,0.25,100,,MoOx,ZnO,4.90E-04,,,,,0.91,15.79,61.32,8.81,8.811
492,247,link,,2D-PBTCl2,-5.43,-3.63,ITIC,-5.48,-3.83,1:01,CB,8,DIO,0.25,90,,MoOx,ZnO,1.10E-04,,,,,0.87,14.52,58.43,7.38,7.381
493,247,link,,PTB7-Th,-5.38,-3.7,ITIC,-5.48,-3.83,1:01,CB,8,DIO,0.25,90,,MoOx,ZnO,,,,,,0.82,14.76,57.09,6.91,6.91
494,248,link,,PBClT,-5.47,-3.61,ITIC,-5.48,-3.83,1:01,CB,8,,,100,,MoOx,ZnO,7.41E-05,,,,,1.01,13.95,60.05,8.46,8.461
495,249,link,,PBDB-T,-5.36,-3.54,BDCPDT-IC,-5.41,-3.87,1:01,,12,DIO,1,,,MoOx,ZnO,,,,,,0.86,16.56,65.52,9.33,9.331
496,249,link,,PBDB-T,-5.36,-3.54,BDCPDT-FIC,-5.52,-4,1:01,,12,,,,,MoOx,ZnO,,,,,,0.7,19.12,60.67,8.12,8.12
497,250,link,,PBFTT,-5.47,-3.56,ITIC,-5.6,-3.85,01:01.5,CB,8,,,,,MoOx,ZnO,4.62E-04,1.55E-04,,,,0.94,16,60.5,9.1,9.099
498,251,link,,PBDB-O,-5.3,-2.82,ITIC,-5.51,-3.78,1:01,CB,20,DIO,0.5,,160,MoOx,ZnO,3.29E-05,6.55E-05,,,,0.846,11.8,43.3,4.35,4.323
499,251,link,,PBDB-T,-5.33,-2.92,ITIC,-5.51,-3.78,1:01,CB,20,DIO,0.5,,160,MoOx,ZnO,2.32E-04,2.93E-04,,,,0.899,16.8,74.2,11.21,11.207
500,252,link,,PBDB-T,-5.31,-3.51,BDTIT-M,-5.4,-3.85,1:01,CB,20,DIO,0.75,100,100,PEDOT:PSS,PDIN,8.84E-04,3.00E-04,,,,0.903,17.56,71.3,11.31,11.306
501,252,link,,PBDB-T,-5.31,-3.51,BDTThIT-M,-5.35,-3.82,1:01,CB,20,DIO,0.75,100,100,PEDOT:PSS,PDIN,9.97E-04,3.93E-04,,,,0.942,18.03,71.4,12.12,12.127
508,252,link,,PBZ,,,ITIC,,,,,,,,,,,,,,,,,0.79,17.2,59,8,8.017
509,252,link,,PFBZ,,,ITIC,,,,,,,,,,,,,,,,,0.89,18.8,62,10.4,10.374
510,252,link,,J51,,,ITIC,,,,,,,,,,,,,,,,,0.84,14.08,61,7.03,7.215
511,252,link,,J60,,,ITIC,,,,,,,,,,,,,,,,,0.92,9.78,57.45,5.17,5.169
512,252,link,,J61,,,ITIC,,,,,,,,,,,,,,,,,0.91,14.95,66.55,9.15,9.054
502,253,link,,PTB7,-5.14,-3.51,IEICO-4F,-5.44,-4.19,01:01.5,CB,10,DIO,0.5,,,PEDOT:PSS,PFN-Br,3.14E-04,4.53E-04,,,,0.54,14.73,28.92,2.3,2.3
503,253,link,,PTB7-Th,-5.22,-3.64,IEICO-4F,-5.44,-4.19,01:01.5,CB,10,CN,1.5,,,PEDOT:PSS,PFN-Br,6.57E-04,4.22E-04,,,,0.72,23.21,69.41,11.6,11.599
504,254,link,,PBO,-5.47,-3.67,ITIC,-5.53,-3.88,1:02,DCB,,DIO,0.5,85,,PEDOT:PSS,LiF,1.30E-05,4.20E-05,,,,0.92,14.3,54,7.1,7.104
505,255,link,,PBDB-T,-5.28,,TTIC-M,-5.3,-3.82,1:01,CB,20,,,,,PEDOT:PSS,PDINO,8.70E-05,8.60E-05,,,,0.83,19.07,63,9.85,9.972
506,255,link,,PBDB-T,-5.28,,TTIC,-5.33,-3.87,1:01,CB,20,,,,,PEDOT:PSS,PDINO,1.63E-04,1.61E-04,,,,0.8,20.58,66,10.73,10.866
507,255,link,,PBDB-T,-5.28,,TTIC-F,-5.34,-3.88,1:01,CB,20,,,,,PEDOT:PSS,PDINO,1.29E-04,1.38E-04,,,,0.71,21.26,63,9.38,9.51
513,256,link,,J71,-5.36,-3.42,ITIC,-5.48,-3.83,01:01.3,CB,10,,,,,MoOx,ZnO,1.82E-03,,,,,0.96,14.81,63.63,9.03,9.047
514,257,link,,FTAZ,-5.48,-3.47,ITIC,-5.64,-4.04,01:01.5,CF,6,,,90,,MoOx,ZnO,9.30E-05,5.90E-06,,,,0.911,16.71,58,8.77,8.829
515,257,link,,HTAZ,-5.42,-3.44,ITIC,-5.64,-4.04,01:01.5,CF,6,,,90,,MoOx,ZnO,1.90E-05,1.50E-06,,,,0.851,13.03,40.8,4.5,4.524
517,258,link,,PTB7-Th,,,IFT-ECA,-5.62,-3.58,01:01.5,DCB,,CN,3,120,,MoOx,ZnO,,,,,,0.76,0.2,23.6,0.03,0.036
518,258,link,,PTB7-Th,,,IFT-M,-5.83,-3.65,01:01.5,DCB,,CN,3,120,,MoOx,ZnO,7.80E-05,7.80E-05,,,,0.76,0.8,24.9,0.15,0.151
519,258,link,,PTB7-Th,,,IFT-IC,-5.7,-3.87,01:01.5,DCB,,CN,3,120,,MoOx,ZnO,5.40E-05,5.40E-05,,,,1.03,8,50.3,4.14,4.145
520,258,link,,PTB7-Th,,,IFT-TH,-5.85,-3.67,01:01.5,DCB,,CN,3,120,,MoOx,ZnO,7.60E-06,7.60E-06,,,,0.9,13.2,60.2,7.16,7.152
521,259,link,,PBDB-T,,,IT-M,,,1:01,CB,10,DIO,1,100,,PEDOT:PSS,PFN-Br,2.09E-04,1.22E-04,,,,0.961,16.69,70,11.5,11.227
522,260,link,,PTB7-Th,,,4TIC,-5.28,-3.87,1:02,CB,30,DIO,0.5,,,PEDOT:PSS,C60-bissalt,,6.20E-04,,,,0.78,18.8,72,10.43,10.558
523,260,link,,PTB7-Th,,,ITIC,-5.43,-3.81,01:01.3,CB,22.5,,,,,PEDOT:PSS,C60-bissalt,,2.40E-04,,,,0.83,15.18,57,7.28,7.182
524,261,link,,TBF-BDD,-5.37,-3.65,ITIC,,,1:01,CF,,,,,110,PEDOT:PSS,PDINO,1.34E-04,1.18E-04,,,,0.85,14.94,56,7.13,7.111
525,261,link,,TBF-BT,-5.4,-3.55,ITIC,,,1:01,CF,,,,,110,PEDOT:PSS,PDINO,8.20E-05,7.00E-05,,,,0.81,13.89,63,7.03,7.088
526,262,link,,PBT,-5.43,-3.65,CzC6C8,-5.79,-3.79,1:03,CB,25,,,97,130,MoOx,ZnO,1.23E-06,2.88E-06,,,,0.99,8.24,41,3.3,3.345
527,262,link,,PBT,-5.43,-3.65,CZC8,-5.72,-3.74,1:03,CB,25,,,103,130,MoOx,ZnO,2.02E-06,3.27E-06,,,,1.03,9,50,4.64,4.635
528,262,link,,PTB7-Th,-5.23,-3.65,CZC8,-5.72,-3.74,1:03,CB,25,,,102,100,MoOx,ZnO,4.73E-05,4.89E-05,,,,0.98,11.24,45,4.91,4.957
529,262,link,,PTFBDT,-5.5,-3.69,CZC8,-5.72,-3.74,1:03,CB,25,,,94,150,MoOx,ZnO,1.88E-06,1.60E-06,,,,1.16,7.99,51,4.67,4.727
530,263,link,,PBDB-T,-5.33,-3.53,IDTC,-5.29,-3.37,1:01,CF,,,,100,160,PEDOT:PSS,PDINO,7.54E-05,1.48E-04,,,,0.917,16.56,61.61,9.35,9.356
531,263,link,,PBDB-T,-5.33,-3.53,IDTO,-5.11,-3.38,1:01,CF,,,,100,160,PEDOT:PSS,PDINO,1.10E-04,1.78E-04,,,,0.943,16.25,65.41,10.02,10.023
532,264,link,,PTB7-Th,-5.2,-3.6,BTA7,-5.56,-3.66,1:02,CF,15,DPE,3,,80,PEDOT:PSS,Ca,,,,,,1.05,10.44,42,4.6,4.604
533,264,link,,PTB7-Th,-5.2,-3.6,BTA1,-5.51,-3.55,1:02,CF,15,DPE,3,,80,PEDOT:PSS,Ca,,,,,,0.93,0.2,29,0.06,0.054
534,264,link,,PTB7-Th,-5.2,-3.6,BTA2,-5.43,-3.38,1:02,CF,15,DPE,3,,80,PEDOT:PSS,Ca,,,,,,1.01,0.05,27,0.01,0.014
535,265,link,,P3HT,-5,-3.1,BTA1,-5.51,-3.55,01:00.6,CF,,CN,0.8,,100,PEDOT:PSS,Ca,,,,,,1.02,7.34,70,5.24,5.241
536,265,link,,P3HT,-5,-3.1,BTA2,-5.43,-3.38,0.6:1,CF,,DIO,0.8,,100,PEDOT:PSS,Ca,4.90E-04,3.40E-04,,,,1.22,6.15,60,4.5,4.502
537,266,link,,P3HT,-5,-3.1,BT2,-5.5,-3.53,1.5:1,CF,15,,,,150,PEDOT:PSS,Ca,1.20E-04,4.60E-05,,,,0.97,7.59,67,4.93,4.933
538,266,link,,P3HT,-5,-3.1,BT2b,-5.41,-3.56,1:01,CF,15,,,,150,PEDOT:PSS,Ca,6.10E-05,8.40E-05,,,,0.92,10.02,66,6.08,6.084
539,267,link,,PBDB-T,-5.33,-2.92,CDTCN,-5.39,-3.8,1:01,CB,20,DIO,0.75,107,80,MoOx,ZnO,6.98E-05,1.87E-04,,,,0.96,11.26,57.58,6.23,6.224
540,268,link,,PTB7-Th,-5.2,-3.59,IHIC,-5.45,-3.93,01:01.5,DCB,20,CN,1,100,,MoOx,ZnO,6.80E-04,1.20E-03,,,,0.754,19.01,68.1,9.77,9.761
541,269,link,,PBDB-T,-5.33,-2.92,ITIC,-5.96,-3.98,1:01,CB,20,DIO,0.5,100,,MoOx,ZnO,,,,,,0.88,13.8,59.8,7.4,7.262
542,270,link,,PBDTTT-C-T,-5.11,-3.25,IDT-2BM,-5.6,-4.8,1.5:1,o-DCB,30,CN,6,,,PEDOT:PSS,Ca,2.50E-04,1.00E-05,,,,0.766,10.1,55.1,4.26,4.263
543,270,link,,PBDTTT-C-T,-5.11,-3.25,IDTT-2BM,-5.5,-3.8,1.5:1,o-DCB,30,DIO,3,,,PEDOT:PSS,Ca,4.10E-04,1.30E-05,,,,0.851,9.87,57.2,4.81,4.804
544,271,link,,PffQx-T,-5.36,-3.56,ITIC,-5.48,-3.83,01:01.5,CF,20,,,100,170,PEDOT:PSS,PDINO,2.31E-04,1.73E-04,,,,0.87,16.33,59.6,8.47,8.467
545,271,link,,PffQx-PS,-5.4,-3.55,ITIC,-5.48,-3.83,1:01,CF,20,DIO,0.1,100,90,PEDOT:PSS,PDINO,4.55E-05,2.41E-05,,,,0.97,14.96,62.9,9.12,9.128
550,272,link,,P3HT,,,IDTBR,,,,CB,,BrA,,,,PEDOT:PSS,ZnO,,,,,,0.913,12.8,65.7,5.89,7.678
551,273,link,,PBDB-T,-5.28,-3.48,ITIC,-5.51,-3.78,1:01,CB,20,,,100,160,MoOx,ZnO,1.50E-04,5.10E-05,,,,0.831,14.5,71.1,8.6,8.567
554,274,link,,PBDB-T,,,ITIC,,,1:01,CB,20,DIO,0.5,100,,MoOx,ZnO,3.87E-04,4.45E-04,,,,0.87,19.11,64.15,10.53,10.665
555,275,link,,PTB7-Th,,,IDTBR,,,,,,,,,,,,,,,,,0.992,17.7,57.3,10.1,10.061
556,275,link,,PTB7-Th,,,IEICO,,,,,,,,,,,,,,,,,0.883,14.8,61.2,7.95,7.998
557,275,link,,PTB7-Th,,,IEICO-4F,,,,,,,,,,,,,,,,,0.707,26.6,66,12.4,12.412
562,276,link,,J101,-5.3,-3.5,ITIC,-5.56,-3.79,1:01,CF,16,,,98,150,PEDOT:PSS,PDINO,,,,,,0.951,17.7,73.65,12.47,12.397
563,276,link,,J101,-5.3,-3.5,ZITI,-5.53,-3.8,1:01,CF,16,,,105,120,PEDOT:PSS,PDINO,2.18E-04,1.27E-04,,,,0.937,21.25,72.48,14.43,14.432
564,276,link,,J71,-5.27,-3.6,ZITI,-5.53,-3.8,1:01,CF,16,,,98,,PEDOT:PSS,PDINO,3.55E-04,4.52E-05,,,,0.912,20.23,69.49,12.82,12.821
565,277,link,,PTB7-Th,,,DICTF-C10,-5.67,-3.89,2:03,o-DCB,10,,,68,,MoOx,ZnO,4.60E-05,2.30E-05,,,,0.865,19.255,50,6.93,8.328